subj,trial,block,date,stim,stim_order,response,rt,param_index,segment_time,pitch
Auregan,0,0,2025-01-10T15:55:54.204Z,male_vraiment_flat_184.wav,0,True,2337,0,0.0,86.245131
Auregan,0,0,2025-01-10T15:55:54.204Z,male_vraiment_flat_184.wav,0,True,2337,1,0.071043,106.60405
Auregan,0,0,2025-01-10T15:55:54.204Z,male_vraiment_flat_184.wav,0,True,2337,2,0.142086,-48.425154
Auregan,0,0,2025-01-10T15:55:54.204Z,male_vraiment_flat_184.wav,0,True,2337,3,0.213129,48.927001
Auregan,0,0,2025-01-10T15:55:54.204Z,male_vraiment_flat_184.wav,0,True,2337,4,0.284172,-82.972934
Auregan,0,0,2025-01-10T15:55:54.204Z,male_vraiment_flat_184.wav,0,True,2337,5,0.355215,73.552976
Auregan,0,0,2025-01-10T15:55:54.204Z,male_vraiment_flat_184.wav,0,True,2337,6,0.426259,-131.359115
Auregan,0,0,2025-01-10T15:55:54.204Z,male_vraiment_flat_163.wav,1,False,2337,0,0.0,-73.767207
Auregan,0,0,2025-01-10T15:55:54.204Z,male_vraiment_flat_163.wav,1,False,2337,1,0.071043,23.213677
Auregan,0,0,2025-01-10T15:55:54.204Z,male_vraiment_flat_163.wav,1,False,2337,2,0.142086,-14.939662
Auregan,0,0,2025-01-10T15:55:54.204Z,male_vraiment_flat_163.wav,1,False,2337,3,0.213129,-71.864469
Auregan,0,0,2025-01-10T15:55:54.204Z,male_vraiment_flat_163.wav,1,False,2337,4,0.284172,-38.295965
Auregan,0,0,2025-01-10T15:55:54.204Z,male_vraiment_flat_163.wav,1,False,2337,5,0.355215,-52.851418
Auregan,0,0,2025-01-10T15:55:54.204Z,male_vraiment_flat_163.wav,1,False,2337,6,0.426259,-70.943671
Auregan,1,0,2025-01-10T15:55:54.204Z,male_vraiment_flat_26.wav,0,True,6767,0,0.0,-135.344658
Auregan,1,0,2025-01-10T15:55:54.204Z,male_vraiment_flat_26.wav,0,True,6767,1,0.071043,-76.172858
Auregan,1,0,2025-01-10T15:55:54.204Z,male_vraiment_flat_26.wav,0,True,6767,2,0.142086,-130.999312
Auregan,1,0,2025-01-10T15:55:54.204Z,male_vraiment_flat_26.wav,0,True,6767,3,0.213129,-146.306144
Auregan,1,0,2025-01-10T15:55:54.204Z,male_vraiment_flat_26.wav,0,True,6767,4,0.284172,-78.266251
Auregan,1,0,2025-01-10T15:55:54.204Z,male_vraiment_flat_26.wav,0,True,6767,5,0.355215,30.254136
Auregan,1,0,2025-01-10T15:55:54.204Z,male_vraiment_flat_26.wav,0,True,6767,6,0.426259,-114.179281
Auregan,1,0,2025-01-10T15:55:54.204Z,male_vraiment_flat_14.wav,1,False,6767,0,0.0,-139.491371
Auregan,1,0,2025-01-10T15:55:54.204Z,male_vraiment_flat_14.wav,1,False,6767,1,0.071043,-89.621492
Auregan,1,0,2025-01-10T15:55:54.204Z,male_vraiment_flat_14.wav,1,False,6767,2,0.142086,-85.009614
Auregan,1,0,2025-01-10T15:55:54.204Z,male_vraiment_flat_14.wav,1,False,6767,3,0.213129,-29.902058
Auregan,1,0,2025-01-10T15:55:54.204Z,male_vraiment_flat_14.wav,1,False,6767,4,0.284172,-86.665261
Auregan,1,0,2025-01-10T15:55:54.204Z,male_vraiment_flat_14.wav,1,False,6767,5,0.355215,27.459037
Auregan,1,0,2025-01-10T15:55:54.204Z,male_vraiment_flat_14.wav,1,False,6767,6,0.426259,33.245669
Auregan,2,0,2025-01-10T15:55:54.204Z,male_vraiment_flat_98.wav,0,False,2039,0,0.0,102.170357
Auregan,2,0,2025-01-10T15:55:54.204Z,male_vraiment_flat_98.wav,0,False,2039,1,0.071043,20.715456
Auregan,2,0,2025-01-10T15:55:54.204Z,male_vraiment_flat_98.wav,0,False,2039,2,0.142086,81.972821
Auregan,2,0,2025-01-10T15:55:54.204Z,male_vraiment_flat_98.wav,0,False,2039,3,0.213129,-125.018297
Auregan,2,0,2025-01-10T15:55:54.204Z,male_vraiment_flat_98.wav,0,False,2039,4,0.284172,103.374214
Auregan,2,0,2025-01-10T15:55:54.204Z,male_vraiment_flat_98.wav,0,False,2039,5,0.355215,-81.704677
Auregan,2,0,2025-01-10T15:55:54.204Z,male_vraiment_flat_98.wav,0,False,2039,6,0.426259,85.109238
Auregan,2,0,2025-01-10T15:55:54.204Z,male_vraiment_flat_176.wav,1,True,2039,0,0.0,-0.886832
Auregan,2,0,2025-01-10T15:55:54.204Z,male_vraiment_flat_176.wav,1,True,2039,1,0.071043,48.604994
Auregan,2,0,2025-01-10T15:55:54.204Z,male_vraiment_flat_176.wav,1,True,2039,2,0.142086,33.352714
Auregan,2,0,2025-01-10T15:55:54.204Z,male_vraiment_flat_176.wav,1,True,2039,3,0.213129,-55.356586
Auregan,2,0,2025-01-10T15:55:54.204Z,male_vraiment_flat_176.wav,1,True,2039,4,0.284172,-13.903711
Auregan,2,0,2025-01-10T15:55:54.204Z,male_vraiment_flat_176.wav,1,True,2039,5,0.355215,54.09653
Auregan,2,0,2025-01-10T15:55:54.204Z,male_vraiment_flat_176.wav,1,True,2039,6,0.426259,-77.791606
Auregan,3,0,2025-01-10T15:55:54.204Z,male_vraiment_flat_130.wav,0,False,2701,0,0.0,-146.057737
Auregan,3,0,2025-01-10T15:55:54.204Z,male_vraiment_flat_130.wav,0,False,2701,1,0.071043,-49.781911
Auregan,3,0,2025-01-10T15:55:54.204Z,male_vraiment_flat_130.wav,0,False,2701,2,0.142086,74.89374
Auregan,3,0,2025-01-10T15:55:54.204Z,male_vraiment_flat_130.wav,0,False,2701,3,0.213129,-14.505163
Auregan,3,0,2025-01-10T15:55:54.204Z,male_vraiment_flat_130.wav,0,False,2701,4,0.284172,16.979815
Auregan,3,0,2025-01-10T15:55:54.204Z,male_vraiment_flat_130.wav,0,False,2701,5,0.355215,-66.512052
Auregan,3,0,2025-01-10T15:55:54.204Z,male_vraiment_flat_130.wav,0,False,2701,6,0.426259,-59.569067
Auregan,3,0,2025-01-10T15:55:54.204Z,male_vraiment_flat_179.wav,1,True,2701,0,0.0,31.793897
Auregan,3,0,2025-01-10T15:55:54.204Z,male_vraiment_flat_179.wav,1,True,2701,1,0.071043,-7.76666
Auregan,3,0,2025-01-10T15:55:54.204Z,male_vraiment_flat_179.wav,1,True,2701,2,0.142086,14.202215
Auregan,3,0,2025-01-10T15:55:54.204Z,male_vraiment_flat_179.wav,1,True,2701,3,0.213129,-28.726082
Auregan,3,0,2025-01-10T15:55:54.204Z,male_vraiment_flat_179.wav,1,True,2701,4,0.284172,-38.298342
Auregan,3,0,2025-01-10T15:55:54.204Z,male_vraiment_flat_179.wav,1,True,2701,5,0.355215,97.025797
Auregan,3,0,2025-01-10T15:55:54.204Z,male_vraiment_flat_179.wav,1,True,2701,6,0.426259,-148.112175
Auregan,4,0,2025-01-10T15:55:54.204Z,male_vraiment_flat_111.wav,0,True,1138,0,0.0,-76.898484
Auregan,4,0,2025-01-10T15:55:54.204Z,male_vraiment_flat_111.wav,0,True,1138,1,0.071043,128.576704
Auregan,4,0,2025-01-10T15:55:54.204Z,male_vraiment_flat_111.wav,0,True,1138,2,0.142086,84.475821
Auregan,4,0,2025-01-10T15:55:54.204Z,male_vraiment_flat_111.wav,0,True,1138,3,0.213129,13.962019
Auregan,4,0,2025-01-10T15:55:54.204Z,male_vraiment_flat_111.wav,0,True,1138,4,0.284172,80.950376
Auregan,4,0,2025-01-10T15:55:54.204Z,male_vraiment_flat_111.wav,0,True,1138,5,0.355215,105.627204
Auregan,4,0,2025-01-10T15:55:54.204Z,male_vraiment_flat_111.wav,0,True,1138,6,0.426259,86.259873
Auregan,4,0,2025-01-10T15:55:54.204Z,male_vraiment_flat_5.wav,1,False,1138,0,0.0,88.556797
Auregan,4,0,2025-01-10T15:55:54.204Z,male_vraiment_flat_5.wav,1,False,1138,1,0.071043,120.959384
Auregan,4,0,2025-01-10T15:55:54.204Z,male_vraiment_flat_5.wav,1,False,1138,2,0.142086,-116.065822
Auregan,4,0,2025-01-10T15:55:54.204Z,male_vraiment_flat_5.wav,1,False,1138,3,0.213129,130.464712
Auregan,4,0,2025-01-10T15:55:54.204Z,male_vraiment_flat_5.wav,1,False,1138,4,0.284172,88.167919
Auregan,4,0,2025-01-10T15:55:54.204Z,male_vraiment_flat_5.wav,1,False,1138,5,0.355215,75.417329
Auregan,4,0,2025-01-10T15:55:54.204Z,male_vraiment_flat_5.wav,1,False,1138,6,0.426259,65.499211
Auregan,5,0,2025-01-10T15:55:54.204Z,male_vraiment_flat_196.wav,0,False,4250,0,0.0,-42.342747
Auregan,5,0,2025-01-10T15:55:54.204Z,male_vraiment_flat_196.wav,0,False,4250,1,0.071043,-81.868734
Auregan,5,0,2025-01-10T15:55:54.204Z,male_vraiment_flat_196.wav,0,False,4250,2,0.142086,-18.906552
Auregan,5,0,2025-01-10T15:55:54.204Z,male_vraiment_flat_196.wav,0,False,4250,3,0.213129,-18.852092
Auregan,5,0,2025-01-10T15:55:54.204Z,male_vraiment_flat_196.wav,0,False,4250,4,0.284172,52.11667
Auregan,5,0,2025-01-10T15:55:54.204Z,male_vraiment_flat_196.wav,0,False,4250,5,0.355215,90.577409
Auregan,5,0,2025-01-10T15:55:54.204Z,male_vraiment_flat_196.wav,0,False,4250,6,0.426259,29.77276
Auregan,5,0,2025-01-10T15:55:54.204Z,male_vraiment_flat_181.wav,1,True,4250,0,0.0,87.984579
Auregan,5,0,2025-01-10T15:55:54.204Z,male_vraiment_flat_181.wav,1,True,4250,1,0.071043,-52.749156
Auregan,5,0,2025-01-10T15:55:54.204Z,male_vraiment_flat_181.wav,1,True,4250,2,0.142086,-81.74454
Auregan,5,0,2025-01-10T15:55:54.204Z,male_vraiment_flat_181.wav,1,True,4250,3,0.213129,-103.539742
Auregan,5,0,2025-01-10T15:55:54.204Z,male_vraiment_flat_181.wav,1,True,4250,4,0.284172,51.14391
Auregan,5,0,2025-01-10T15:55:54.204Z,male_vraiment_flat_181.wav,1,True,4250,5,0.355215,89.293467
Auregan,5,0,2025-01-10T15:55:54.204Z,male_vraiment_flat_181.wav,1,True,4250,6,0.426259,-33.289981
Auregan,6,0,2025-01-10T15:55:54.204Z,male_vraiment_flat_156.wav,0,True,2454,0,0.0,62.995907
Auregan,6,0,2025-01-10T15:55:54.204Z,male_vraiment_flat_156.wav,0,True,2454,1,0.071043,-119.801161
Auregan,6,0,2025-01-10T15:55:54.204Z,male_vraiment_flat_156.wav,0,True,2454,2,0.142086,-125.261471
Auregan,6,0,2025-01-10T15:55:54.204Z,male_vraiment_flat_156.wav,0,True,2454,3,0.213129,110.918732
Auregan,6,0,2025-01-10T15:55:54.204Z,male_vraiment_flat_156.wav,0,True,2454,4,0.284172,-27.635219
Auregan,6,0,2025-01-10T15:55:54.204Z,male_vraiment_flat_156.wav,0,True,2454,5,0.355215,57.92693
Auregan,6,0,2025-01-10T15:55:54.204Z,male_vraiment_flat_156.wav,0,True,2454,6,0.426259,-85.703842
Auregan,6,0,2025-01-10T15:55:54.204Z,male_vraiment_flat_185.wav,1,False,2454,0,0.0,7.537788
Auregan,6,0,2025-01-10T15:55:54.204Z,male_vraiment_flat_185.wav,1,False,2454,1,0.071043,138.761382
Auregan,6,0,2025-01-10T15:55:54.204Z,male_vraiment_flat_185.wav,1,False,2454,2,0.142086,88.970452
Auregan,6,0,2025-01-10T15:55:54.204Z,male_vraiment_flat_185.wav,1,False,2454,3,0.213129,-106.980409
Auregan,6,0,2025-01-10T15:55:54.204Z,male_vraiment_flat_185.wav,1,False,2454,4,0.284172,-72.334155
Auregan,6,0,2025-01-10T15:55:54.204Z,male_vraiment_flat_185.wav,1,False,2454,5,0.355215,87.356426
Auregan,6,0,2025-01-10T15:55:54.204Z,male_vraiment_flat_185.wav,1,False,2454,6,0.426259,90.917936
Auregan,7,0,2025-01-10T15:55:54.204Z,male_vraiment_flat_152.wav,0,False,2779,0,0.0,-121.409464
Auregan,7,0,2025-01-10T15:55:54.204Z,male_vraiment_flat_152.wav,0,False,2779,1,0.071043,26.229918
Auregan,7,0,2025-01-10T15:55:54.204Z,male_vraiment_flat_152.wav,0,False,2779,2,0.142086,46.107283
Auregan,7,0,2025-01-10T15:55:54.204Z,male_vraiment_flat_152.wav,0,False,2779,3,0.213129,-122.378424
Auregan,7,0,2025-01-10T15:55:54.204Z,male_vraiment_flat_152.wav,0,False,2779,4,0.284172,64.911076
Auregan,7,0,2025-01-10T15:55:54.204Z,male_vraiment_flat_152.wav,0,False,2779,5,0.355215,129.744578
Auregan,7,0,2025-01-10T15:55:54.204Z,male_vraiment_flat_152.wav,0,False,2779,6,0.426259,51.632825
Auregan,7,0,2025-01-10T15:55:54.204Z,male_vraiment_flat_15.wav,1,True,2779,0,0.0,-99.515509
Auregan,7,0,2025-01-10T15:55:54.204Z,male_vraiment_flat_15.wav,1,True,2779,1,0.071043,-34.266668
Auregan,7,0,2025-01-10T15:55:54.204Z,male_vraiment_flat_15.wav,1,True,2779,2,0.142086,14.847828
Auregan,7,0,2025-01-10T15:55:54.204Z,male_vraiment_flat_15.wav,1,True,2779,3,0.213129,69.933849
Auregan,7,0,2025-01-10T15:55:54.204Z,male_vraiment_flat_15.wav,1,True,2779,4,0.284172,112.308778
Auregan,7,0,2025-01-10T15:55:54.204Z,male_vraiment_flat_15.wav,1,True,2779,5,0.355215,84.391608
Auregan,7,0,2025-01-10T15:55:54.204Z,male_vraiment_flat_15.wav,1,True,2779,6,0.426259,-74.68715
Auregan,8,0,2025-01-10T15:55:54.204Z,male_vraiment_flat_38.wav,0,False,865,0,0.0,144.136513
Auregan,8,0,2025-01-10T15:55:54.204Z,male_vraiment_flat_38.wav,0,False,865,1,0.071043,-64.103106
Auregan,8,0,2025-01-10T15:55:54.204Z,male_vraiment_flat_38.wav,0,False,865,2,0.142086,-98.673112
Auregan,8,0,2025-01-10T15:55:54.204Z,male_vraiment_flat_38.wav,0,False,865,3,0.213129,-23.920097
Auregan,8,0,2025-01-10T15:55:54.204Z,male_vraiment_flat_38.wav,0,False,865,4,0.284172,-49.884553
Auregan,8,0,2025-01-10T15:55:54.204Z,male_vraiment_flat_38.wav,0,False,865,5,0.355215,-104.927811
Auregan,8,0,2025-01-10T15:55:54.204Z,male_vraiment_flat_38.wav,0,False,865,6,0.426259,133.075001
Auregan,8,0,2025-01-10T15:55:54.204Z,male_vraiment_flat_166.wav,1,True,865,0,0.0,40.484109
Auregan,8,0,2025-01-10T15:55:54.204Z,male_vraiment_flat_166.wav,1,True,865,1,0.071043,-10.250913
Auregan,8,0,2025-01-10T15:55:54.204Z,male_vraiment_flat_166.wav,1,True,865,2,0.142086,-109.726305
Auregan,8,0,2025-01-10T15:55:54.204Z,male_vraiment_flat_166.wav,1,True,865,3,0.213129,-32.205058
Auregan,8,0,2025-01-10T15:55:54.204Z,male_vraiment_flat_166.wav,1,True,865,4,0.284172,141.461363
Auregan,8,0,2025-01-10T15:55:54.204Z,male_vraiment_flat_166.wav,1,True,865,5,0.355215,65.199031
Auregan,8,0,2025-01-10T15:55:54.204Z,male_vraiment_flat_166.wav,1,True,865,6,0.426259,-54.014549
Auregan,9,0,2025-01-10T15:55:54.204Z,male_vraiment_flat_13.wav,0,True,1092,0,0.0,-66.984077
Auregan,9,0,2025-01-10T15:55:54.204Z,male_vraiment_flat_13.wav,0,True,1092,1,0.071043,5.429279
Auregan,9,0,2025-01-10T15:55:54.204Z,male_vraiment_flat_13.wav,0,True,1092,2,0.142086,12.572717
Auregan,9,0,2025-01-10T15:55:54.204Z,male_vraiment_flat_13.wav,0,True,1092,3,0.213129,-71.562953
Auregan,9,0,2025-01-10T15:55:54.204Z,male_vraiment_flat_13.wav,0,True,1092,4,0.284172,-107.999901
Auregan,9,0,2025-01-10T15:55:54.204Z,male_vraiment_flat_13.wav,0,True,1092,5,0.355215,86.606735
Auregan,9,0,2025-01-10T15:55:54.204Z,male_vraiment_flat_13.wav,0,True,1092,6,0.426259,-82.122177
Auregan,9,0,2025-01-10T15:55:54.204Z,male_vraiment_flat_10.wav,1,False,1092,0,0.0,-59.283835
Auregan,9,0,2025-01-10T15:55:54.204Z,male_vraiment_flat_10.wav,1,False,1092,1,0.071043,33.418752
Auregan,9,0,2025-01-10T15:55:54.204Z,male_vraiment_flat_10.wav,1,False,1092,2,0.142086,-98.686452
Auregan,9,0,2025-01-10T15:55:54.204Z,male_vraiment_flat_10.wav,1,False,1092,3,0.213129,137.870403
Auregan,9,0,2025-01-10T15:55:54.204Z,male_vraiment_flat_10.wav,1,False,1092,4,0.284172,-113.384751
Auregan,9,0,2025-01-10T15:55:54.204Z,male_vraiment_flat_10.wav,1,False,1092,5,0.355215,-122.497954
Auregan,9,0,2025-01-10T15:55:54.204Z,male_vraiment_flat_10.wav,1,False,1092,6,0.426259,-121.154526
Auregan,10,0,2025-01-10T15:55:54.204Z,male_vraiment_flat_16.wav,0,True,2563,0,0.0,141.243943
Auregan,10,0,2025-01-10T15:55:54.204Z,male_vraiment_flat_16.wav,0,True,2563,1,0.071043,-34.322435
Auregan,10,0,2025-01-10T15:55:54.204Z,male_vraiment_flat_16.wav,0,True,2563,2,0.142086,10.018864
Auregan,10,0,2025-01-10T15:55:54.204Z,male_vraiment_flat_16.wav,0,True,2563,3,0.213129,-24.066951
Auregan,10,0,2025-01-10T15:55:54.204Z,male_vraiment_flat_16.wav,0,True,2563,4,0.284172,45.502655
Auregan,10,0,2025-01-10T15:55:54.204Z,male_vraiment_flat_16.wav,0,True,2563,5,0.355215,107.276086
Auregan,10,0,2025-01-10T15:55:54.204Z,male_vraiment_flat_16.wav,0,True,2563,6,0.426259,58.11038
Auregan,10,0,2025-01-10T15:55:54.204Z,male_vraiment_flat_9.wav,1,False,2563,0,0.0,85.332288
Auregan,10,0,2025-01-10T15:55:54.204Z,male_vraiment_flat_9.wav,1,False,2563,1,0.071043,-113.94952
Auregan,10,0,2025-01-10T15:55:54.204Z,male_vraiment_flat_9.wav,1,False,2563,2,0.142086,22.84807
Auregan,10,0,2025-01-10T15:55:54.204Z,male_vraiment_flat_9.wav,1,False,2563,3,0.213129,-135.528843
Auregan,10,0,2025-01-10T15:55:54.204Z,male_vraiment_flat_9.wav,1,False,2563,4,0.284172,76.46033
Auregan,10,0,2025-01-10T15:55:54.204Z,male_vraiment_flat_9.wav,1,False,2563,5,0.355215,72.455461
Auregan,10,0,2025-01-10T15:55:54.204Z,male_vraiment_flat_9.wav,1,False,2563,6,0.426259,-135.542556
Auregan,11,0,2025-01-10T15:55:54.204Z,male_vraiment_flat_115.wav,0,True,5889,0,0.0,-100.568741
Auregan,11,0,2025-01-10T15:55:54.204Z,male_vraiment_flat_115.wav,0,True,5889,1,0.071043,57.843647
Auregan,11,0,2025-01-10T15:55:54.204Z,male_vraiment_flat_115.wav,0,True,5889,2,0.142086,-30.946862
Auregan,11,0,2025-01-10T15:55:54.204Z,male_vraiment_flat_115.wav,0,True,5889,3,0.213129,-117.622484
Auregan,11,0,2025-01-10T15:55:54.204Z,male_vraiment_flat_115.wav,0,True,5889,4,0.284172,12.634833
Auregan,11,0,2025-01-10T15:55:54.204Z,male_vraiment_flat_115.wav,0,True,5889,5,0.355215,-81.533692
Auregan,11,0,2025-01-10T15:55:54.204Z,male_vraiment_flat_115.wav,0,True,5889,6,0.426259,-72.293995
Auregan,11,0,2025-01-10T15:55:54.204Z,male_vraiment_flat_178.wav,1,False,5889,0,0.0,-112.052653
Auregan,11,0,2025-01-10T15:55:54.204Z,male_vraiment_flat_178.wav,1,False,5889,1,0.071043,-21.378049
Auregan,11,0,2025-01-10T15:55:54.204Z,male_vraiment_flat_178.wav,1,False,5889,2,0.142086,71.39595
Auregan,11,0,2025-01-10T15:55:54.204Z,male_vraiment_flat_178.wav,1,False,5889,3,0.213129,66.817796
Auregan,11,0,2025-01-10T15:55:54.204Z,male_vraiment_flat_178.wav,1,False,5889,4,0.284172,25.20335
Auregan,11,0,2025-01-10T15:55:54.204Z,male_vraiment_flat_178.wav,1,False,5889,5,0.355215,-37.010641
Auregan,11,0,2025-01-10T15:55:54.204Z,male_vraiment_flat_178.wav,1,False,5889,6,0.426259,88.032365
Auregan,12,0,2025-01-10T15:55:54.204Z,male_vraiment_flat_150.wav,0,False,2591,0,0.0,-0.845919
Auregan,12,0,2025-01-10T15:55:54.204Z,male_vraiment_flat_150.wav,0,False,2591,1,0.071043,-101.665398
Auregan,12,0,2025-01-10T15:55:54.204Z,male_vraiment_flat_150.wav,0,False,2591,2,0.142086,-128.909269
Auregan,12,0,2025-01-10T15:55:54.204Z,male_vraiment_flat_150.wav,0,False,2591,3,0.213129,-98.956601
Auregan,12,0,2025-01-10T15:55:54.204Z,male_vraiment_flat_150.wav,0,False,2591,4,0.284172,-120.69302
Auregan,12,0,2025-01-10T15:55:54.204Z,male_vraiment_flat_150.wav,0,False,2591,5,0.355215,-126.286795
Auregan,12,0,2025-01-10T15:55:54.204Z,male_vraiment_flat_150.wav,0,False,2591,6,0.426259,121.368949
Auregan,12,0,2025-01-10T15:55:54.204Z,male_vraiment_flat_120.wav,1,True,2591,0,0.0,20.081065
Auregan,12,0,2025-01-10T15:55:54.204Z,male_vraiment_flat_120.wav,1,True,2591,1,0.071043,100.844988
Auregan,12,0,2025-01-10T15:55:54.204Z,male_vraiment_flat_120.wav,1,True,2591,2,0.142086,-34.199178
Auregan,12,0,2025-01-10T15:55:54.204Z,male_vraiment_flat_120.wav,1,True,2591,3,0.213129,-3.979999
Auregan,12,0,2025-01-10T15:55:54.204Z,male_vraiment_flat_120.wav,1,True,2591,4,0.284172,-132.448085
Auregan,12,0,2025-01-10T15:55:54.204Z,male_vraiment_flat_120.wav,1,True,2591,5,0.355215,-95.704719
Auregan,12,0,2025-01-10T15:55:54.204Z,male_vraiment_flat_120.wav,1,True,2591,6,0.426259,-2.125632
Auregan,13,0,2025-01-10T15:55:54.204Z,male_vraiment_flat_126.wav,0,True,1338,0,0.0,23.45052
Auregan,13,0,2025-01-10T15:55:54.204Z,male_vraiment_flat_126.wav,0,True,1338,1,0.071043,102.584681
Auregan,13,0,2025-01-10T15:55:54.204Z,male_vraiment_flat_126.wav,0,True,1338,2,0.142086,38.2243
Auregan,13,0,2025-01-10T15:55:54.204Z,male_vraiment_flat_126.wav,0,True,1338,3,0.213129,-16.427695
Auregan,13,0,2025-01-10T15:55:54.204Z,male_vraiment_flat_126.wav,0,True,1338,4,0.284172,7.421137
Auregan,13,0,2025-01-10T15:55:54.204Z,male_vraiment_flat_126.wav,0,True,1338,5,0.355215,-9.369055
Auregan,13,0,2025-01-10T15:55:54.204Z,male_vraiment_flat_126.wav,0,True,1338,6,0.426259,-89.176758
Auregan,13,0,2025-01-10T15:55:54.204Z,male_vraiment_flat_2.wav,1,False,1338,0,0.0,-26.280713
Auregan,13,0,2025-01-10T15:55:54.204Z,male_vraiment_flat_2.wav,1,False,1338,1,0.071043,83.932106
Auregan,13,0,2025-01-10T15:55:54.204Z,male_vraiment_flat_2.wav,1,False,1338,2,0.142086,59.369452
Auregan,13,0,2025-01-10T15:55:54.204Z,male_vraiment_flat_2.wav,1,False,1338,3,0.213129,8.881156
Auregan,13,0,2025-01-10T15:55:54.204Z,male_vraiment_flat_2.wav,1,False,1338,4,0.284172,3.498385
Auregan,13,0,2025-01-10T15:55:54.204Z,male_vraiment_flat_2.wav,1,False,1338,5,0.355215,-133.430007
Auregan,13,0,2025-01-10T15:55:54.204Z,male_vraiment_flat_2.wav,1,False,1338,6,0.426259,94.606197
Auregan,14,0,2025-01-10T15:55:54.204Z,male_vraiment_flat_139.wav,0,False,2263,0,0.0,-131.535185
Auregan,14,0,2025-01-10T15:55:54.204Z,male_vraiment_flat_139.wav,0,False,2263,1,0.071043,-10.702864
Auregan,14,0,2025-01-10T15:55:54.204Z,male_vraiment_flat_139.wav,0,False,2263,2,0.142086,-8.37004
Auregan,14,0,2025-01-10T15:55:54.204Z,male_vraiment_flat_139.wav,0,False,2263,3,0.213129,83.706839
Auregan,14,0,2025-01-10T15:55:54.204Z,male_vraiment_flat_139.wav,0,False,2263,4,0.284172,-28.836111
Auregan,14,0,2025-01-10T15:55:54.204Z,male_vraiment_flat_139.wav,0,False,2263,5,0.355215,8.499607
Auregan,14,0,2025-01-10T15:55:54.204Z,male_vraiment_flat_139.wav,0,False,2263,6,0.426259,-85.859123
Auregan,14,0,2025-01-10T15:55:54.204Z,male_vraiment_flat_19.wav,1,True,2263,0,0.0,-23.596543
Auregan,14,0,2025-01-10T15:55:54.204Z,male_vraiment_flat_19.wav,1,True,2263,1,0.071043,-71.824414
Auregan,14,0,2025-01-10T15:55:54.204Z,male_vraiment_flat_19.wav,1,True,2263,2,0.142086,88.506579
Auregan,14,0,2025-01-10T15:55:54.204Z,male_vraiment_flat_19.wav,1,True,2263,3,0.213129,-79.935804
Auregan,14,0,2025-01-10T15:55:54.204Z,male_vraiment_flat_19.wav,1,True,2263,4,0.284172,97.974212
Auregan,14,0,2025-01-10T15:55:54.204Z,male_vraiment_flat_19.wav,1,True,2263,5,0.355215,-89.439384
Auregan,14,0,2025-01-10T15:55:54.204Z,male_vraiment_flat_19.wav,1,True,2263,6,0.426259,-131.198163
Auregan,15,0,2025-01-10T15:55:54.204Z,male_vraiment_flat_43.wav,0,False,3235,0,0.0,49.290737
Auregan,15,0,2025-01-10T15:55:54.204Z,male_vraiment_flat_43.wav,0,False,3235,1,0.071043,5.814602
Auregan,15,0,2025-01-10T15:55:54.204Z,male_vraiment_flat_43.wav,0,False,3235,2,0.142086,-14.528706
Auregan,15,0,2025-01-10T15:55:54.204Z,male_vraiment_flat_43.wav,0,False,3235,3,0.213129,53.076799
Auregan,15,0,2025-01-10T15:55:54.204Z,male_vraiment_flat_43.wav,0,False,3235,4,0.284172,-30.290069
Auregan,15,0,2025-01-10T15:55:54.204Z,male_vraiment_flat_43.wav,0,False,3235,5,0.355215,134.741064
Auregan,15,0,2025-01-10T15:55:54.204Z,male_vraiment_flat_43.wav,0,False,3235,6,0.426259,54.746527
Auregan,15,0,2025-01-10T15:55:54.204Z,male_vraiment_flat_55.wav,1,True,3235,0,0.0,41.960803
Auregan,15,0,2025-01-10T15:55:54.204Z,male_vraiment_flat_55.wav,1,True,3235,1,0.071043,-15.216637
Auregan,15,0,2025-01-10T15:55:54.204Z,male_vraiment_flat_55.wav,1,True,3235,2,0.142086,-141.495937
Auregan,15,0,2025-01-10T15:55:54.204Z,male_vraiment_flat_55.wav,1,True,3235,3,0.213129,-73.120481
Auregan,15,0,2025-01-10T15:55:54.204Z,male_vraiment_flat_55.wav,1,True,3235,4,0.284172,-46.277227
Auregan,15,0,2025-01-10T15:55:54.204Z,male_vraiment_flat_55.wav,1,True,3235,5,0.355215,60.235867
Auregan,15,0,2025-01-10T15:55:54.204Z,male_vraiment_flat_55.wav,1,True,3235,6,0.426259,0.915299
Auregan,16,0,2025-01-10T15:55:54.204Z,male_vraiment_flat_29.wav,0,True,5401,0,0.0,78.626852
Auregan,16,0,2025-01-10T15:55:54.204Z,male_vraiment_flat_29.wav,0,True,5401,1,0.071043,124.163952
Auregan,16,0,2025-01-10T15:55:54.204Z,male_vraiment_flat_29.wav,0,True,5401,2,0.142086,-62.289103
Auregan,16,0,2025-01-10T15:55:54.204Z,male_vraiment_flat_29.wav,0,True,5401,3,0.213129,54.806982
Auregan,16,0,2025-01-10T15:55:54.204Z,male_vraiment_flat_29.wav,0,True,5401,4,0.284172,75.809549
Auregan,16,0,2025-01-10T15:55:54.204Z,male_vraiment_flat_29.wav,0,True,5401,5,0.355215,87.233703
Auregan,16,0,2025-01-10T15:55:54.204Z,male_vraiment_flat_29.wav,0,True,5401,6,0.426259,-95.916715
Auregan,16,0,2025-01-10T15:55:54.204Z,male_vraiment_flat_66.wav,1,False,5401,0,0.0,96.429433
Auregan,16,0,2025-01-10T15:55:54.204Z,male_vraiment_flat_66.wav,1,False,5401,1,0.071043,13.373052
Auregan,16,0,2025-01-10T15:55:54.204Z,male_vraiment_flat_66.wav,1,False,5401,2,0.142086,112.602816
Auregan,16,0,2025-01-10T15:55:54.204Z,male_vraiment_flat_66.wav,1,False,5401,3,0.213129,110.292573
Auregan,16,0,2025-01-10T15:55:54.204Z,male_vraiment_flat_66.wav,1,False,5401,4,0.284172,-89.729138
Auregan,16,0,2025-01-10T15:55:54.204Z,male_vraiment_flat_66.wav,1,False,5401,5,0.355215,-67.456514
Auregan,16,0,2025-01-10T15:55:54.204Z,male_vraiment_flat_66.wav,1,False,5401,6,0.426259,79.997172
Auregan,17,0,2025-01-10T15:55:54.204Z,male_vraiment_flat_195.wav,0,False,5743,0,0.0,-54.423844
Auregan,17,0,2025-01-10T15:55:54.204Z,male_vraiment_flat_195.wav,0,False,5743,1,0.071043,81.067183
Auregan,17,0,2025-01-10T15:55:54.204Z,male_vraiment_flat_195.wav,0,False,5743,2,0.142086,-60.396049
Auregan,17,0,2025-01-10T15:55:54.204Z,male_vraiment_flat_195.wav,0,False,5743,3,0.213129,-65.685418
Auregan,17,0,2025-01-10T15:55:54.204Z,male_vraiment_flat_195.wav,0,False,5743,4,0.284172,141.607211
Auregan,17,0,2025-01-10T15:55:54.204Z,male_vraiment_flat_195.wav,0,False,5743,5,0.355215,37.879388
Auregan,17,0,2025-01-10T15:55:54.204Z,male_vraiment_flat_195.wav,0,False,5743,6,0.426259,-52.972183
Auregan,17,0,2025-01-10T15:55:54.204Z,male_vraiment_flat_86.wav,1,True,5743,0,0.0,85.260205
Auregan,17,0,2025-01-10T15:55:54.204Z,male_vraiment_flat_86.wav,1,True,5743,1,0.071043,-4.684566
Auregan,17,0,2025-01-10T15:55:54.204Z,male_vraiment_flat_86.wav,1,True,5743,2,0.142086,133.406345
Auregan,17,0,2025-01-10T15:55:54.204Z,male_vraiment_flat_86.wav,1,True,5743,3,0.213129,110.454503
Auregan,17,0,2025-01-10T15:55:54.204Z,male_vraiment_flat_86.wav,1,True,5743,4,0.284172,38.373367
Auregan,17,0,2025-01-10T15:55:54.204Z,male_vraiment_flat_86.wav,1,True,5743,5,0.355215,75.992097
Auregan,17,0,2025-01-10T15:55:54.204Z,male_vraiment_flat_86.wav,1,True,5743,6,0.426259,-87.651019
Auregan,18,0,2025-01-10T15:55:54.204Z,male_vraiment_flat_138.wav,0,True,3593,0,0.0,-29.536298
Auregan,18,0,2025-01-10T15:55:54.204Z,male_vraiment_flat_138.wav,0,True,3593,1,0.071043,90.685935
Auregan,18,0,2025-01-10T15:55:54.204Z,male_vraiment_flat_138.wav,0,True,3593,2,0.142086,-77.044346
Auregan,18,0,2025-01-10T15:55:54.204Z,male_vraiment_flat_138.wav,0,True,3593,3,0.213129,-75.264885
Auregan,18,0,2025-01-10T15:55:54.204Z,male_vraiment_flat_138.wav,0,True,3593,4,0.284172,-129.490236
Auregan,18,0,2025-01-10T15:55:54.204Z,male_vraiment_flat_138.wav,0,True,3593,5,0.355215,-48.940612
Auregan,18,0,2025-01-10T15:55:54.204Z,male_vraiment_flat_138.wav,0,True,3593,6,0.426259,-95.647001
Auregan,18,0,2025-01-10T15:55:54.204Z,male_vraiment_flat_144.wav,1,False,3593,0,0.0,-68.167624
Auregan,18,0,2025-01-10T15:55:54.204Z,male_vraiment_flat_144.wav,1,False,3593,1,0.071043,-79.458647
Auregan,18,0,2025-01-10T15:55:54.204Z,male_vraiment_flat_144.wav,1,False,3593,2,0.142086,-79.660425
Auregan,18,0,2025-01-10T15:55:54.204Z,male_vraiment_flat_144.wav,1,False,3593,3,0.213129,60.124898
Auregan,18,0,2025-01-10T15:55:54.204Z,male_vraiment_flat_144.wav,1,False,3593,4,0.284172,21.367664
Auregan,18,0,2025-01-10T15:55:54.204Z,male_vraiment_flat_144.wav,1,False,3593,5,0.355215,44.158096
Auregan,18,0,2025-01-10T15:55:54.204Z,male_vraiment_flat_144.wav,1,False,3593,6,0.426259,60.089593
Auregan,19,0,2025-01-10T15:55:54.204Z,male_vraiment_flat_104.wav,0,False,805,0,0.0,-70.174686
Auregan,19,0,2025-01-10T15:55:54.204Z,male_vraiment_flat_104.wav,0,False,805,1,0.071043,-64.753986
Auregan,19,0,2025-01-10T15:55:54.204Z,male_vraiment_flat_104.wav,0,False,805,2,0.142086,-116.29349
Auregan,19,0,2025-01-10T15:55:54.204Z,male_vraiment_flat_104.wav,0,False,805,3,0.213129,-63.059369
Auregan,19,0,2025-01-10T15:55:54.204Z,male_vraiment_flat_104.wav,0,False,805,4,0.284172,102.899256
Auregan,19,0,2025-01-10T15:55:54.204Z,male_vraiment_flat_104.wav,0,False,805,5,0.355215,-142.93664
Auregan,19,0,2025-01-10T15:55:54.204Z,male_vraiment_flat_104.wav,0,False,805,6,0.426259,-16.173865
Auregan,19,0,2025-01-10T15:55:54.204Z,male_vraiment_flat_21.wav,1,True,805,0,0.0,84.422922
Auregan,19,0,2025-01-10T15:55:54.204Z,male_vraiment_flat_21.wav,1,True,805,1,0.071043,34.734306
Auregan,19,0,2025-01-10T15:55:54.204Z,male_vraiment_flat_21.wav,1,True,805,2,0.142086,84.348012
Auregan,19,0,2025-01-10T15:55:54.204Z,male_vraiment_flat_21.wav,1,True,805,3,0.213129,-112.005491
Auregan,19,0,2025-01-10T15:55:54.204Z,male_vraiment_flat_21.wav,1,True,805,4,0.284172,147.407394
Auregan,19,0,2025-01-10T15:55:54.204Z,male_vraiment_flat_21.wav,1,True,805,5,0.355215,-6.622355
Auregan,19,0,2025-01-10T15:55:54.204Z,male_vraiment_flat_21.wav,1,True,805,6,0.426259,125.674103
Auregan,20,0,2025-01-10T15:55:54.204Z,male_vraiment_flat_157.wav,0,False,1505,0,0.0,20.473057
Auregan,20,0,2025-01-10T15:55:54.204Z,male_vraiment_flat_157.wav,0,False,1505,1,0.071043,-103.427341
Auregan,20,0,2025-01-10T15:55:54.204Z,male_vraiment_flat_157.wav,0,False,1505,2,0.142086,-58.67029
Auregan,20,0,2025-01-10T15:55:54.204Z,male_vraiment_flat_157.wav,0,False,1505,3,0.213129,-88.181786
Auregan,20,0,2025-01-10T15:55:54.204Z,male_vraiment_flat_157.wav,0,False,1505,4,0.284172,-145.892431
Auregan,20,0,2025-01-10T15:55:54.204Z,male_vraiment_flat_157.wav,0,False,1505,5,0.355215,-121.19713
Auregan,20,0,2025-01-10T15:55:54.204Z,male_vraiment_flat_157.wav,0,False,1505,6,0.426259,3.215116
Auregan,20,0,2025-01-10T15:55:54.204Z,male_vraiment_flat_91.wav,1,True,1505,0,0.0,58.982225
Auregan,20,0,2025-01-10T15:55:54.204Z,male_vraiment_flat_91.wav,1,True,1505,1,0.071043,126.482844
Auregan,20,0,2025-01-10T15:55:54.204Z,male_vraiment_flat_91.wav,1,True,1505,2,0.142086,-120.324305
Auregan,20,0,2025-01-10T15:55:54.204Z,male_vraiment_flat_91.wav,1,True,1505,3,0.213129,54.493295
Auregan,20,0,2025-01-10T15:55:54.204Z,male_vraiment_flat_91.wav,1,True,1505,4,0.284172,74.680181
Auregan,20,0,2025-01-10T15:55:54.204Z,male_vraiment_flat_91.wav,1,True,1505,5,0.355215,99.12488
Auregan,20,0,2025-01-10T15:55:54.204Z,male_vraiment_flat_91.wav,1,True,1505,6,0.426259,-32.505202
Auregan,21,0,2025-01-10T15:55:54.204Z,male_vraiment_flat_161.wav,0,False,832,0,0.0,108.108554
Auregan,21,0,2025-01-10T15:55:54.204Z,male_vraiment_flat_161.wav,0,False,832,1,0.071043,47.804173
Auregan,21,0,2025-01-10T15:55:54.204Z,male_vraiment_flat_161.wav,0,False,832,2,0.142086,-38.721105
Auregan,21,0,2025-01-10T15:55:54.204Z,male_vraiment_flat_161.wav,0,False,832,3,0.213129,108.595174
Auregan,21,0,2025-01-10T15:55:54.204Z,male_vraiment_flat_161.wav,0,False,832,4,0.284172,94.751032
Auregan,21,0,2025-01-10T15:55:54.204Z,male_vraiment_flat_161.wav,0,False,832,5,0.355215,-22.399732
Auregan,21,0,2025-01-10T15:55:54.204Z,male_vraiment_flat_161.wav,0,False,832,6,0.426259,88.139884
Auregan,21,0,2025-01-10T15:55:54.204Z,male_vraiment_flat_87.wav,1,True,832,0,0.0,123.541183
Auregan,21,0,2025-01-10T15:55:54.204Z,male_vraiment_flat_87.wav,1,True,832,1,0.071043,-79.641893
Auregan,21,0,2025-01-10T15:55:54.204Z,male_vraiment_flat_87.wav,1,True,832,2,0.142086,-129.036775
Auregan,21,0,2025-01-10T15:55:54.204Z,male_vraiment_flat_87.wav,1,True,832,3,0.213129,-12.372422
Auregan,21,0,2025-01-10T15:55:54.204Z,male_vraiment_flat_87.wav,1,True,832,4,0.284172,47.099802
Auregan,21,0,2025-01-10T15:55:54.204Z,male_vraiment_flat_87.wav,1,True,832,5,0.355215,133.796504
Auregan,21,0,2025-01-10T15:55:54.204Z,male_vraiment_flat_87.wav,1,True,832,6,0.426259,125.051187
Auregan,22,0,2025-01-10T15:55:54.204Z,male_vraiment_flat_180.wav,0,True,809,0,0.0,-17.910938
Auregan,22,0,2025-01-10T15:55:54.204Z,male_vraiment_flat_180.wav,0,True,809,1,0.071043,24.825304
Auregan,22,0,2025-01-10T15:55:54.204Z,male_vraiment_flat_180.wav,0,True,809,2,0.142086,-141.305904
Auregan,22,0,2025-01-10T15:55:54.204Z,male_vraiment_flat_180.wav,0,True,809,3,0.213129,39.379988
Auregan,22,0,2025-01-10T15:55:54.204Z,male_vraiment_flat_180.wav,0,True,809,4,0.284172,-132.932424
Auregan,22,0,2025-01-10T15:55:54.204Z,male_vraiment_flat_180.wav,0,True,809,5,0.355215,-6.123363
Auregan,22,0,2025-01-10T15:55:54.204Z,male_vraiment_flat_180.wav,0,True,809,6,0.426259,-0.737662
Auregan,22,0,2025-01-10T15:55:54.204Z,male_vraiment_flat_142.wav,1,False,809,0,0.0,129.881009
Auregan,22,0,2025-01-10T15:55:54.204Z,male_vraiment_flat_142.wav,1,False,809,1,0.071043,116.596688
Auregan,22,0,2025-01-10T15:55:54.204Z,male_vraiment_flat_142.wav,1,False,809,2,0.142086,48.203333
Auregan,22,0,2025-01-10T15:55:54.204Z,male_vraiment_flat_142.wav,1,False,809,3,0.213129,100.883154
Auregan,22,0,2025-01-10T15:55:54.204Z,male_vraiment_flat_142.wav,1,False,809,4,0.284172,-39.625904
Auregan,22,0,2025-01-10T15:55:54.204Z,male_vraiment_flat_142.wav,1,False,809,5,0.355215,-141.802649
Auregan,22,0,2025-01-10T15:55:54.204Z,male_vraiment_flat_142.wav,1,False,809,6,0.426259,58.691582
Auregan,23,0,2025-01-10T15:55:54.204Z,male_vraiment_flat_190.wav,0,True,1782,0,0.0,-135.472764
Auregan,23,0,2025-01-10T15:55:54.204Z,male_vraiment_flat_190.wav,0,True,1782,1,0.071043,-16.311165
Auregan,23,0,2025-01-10T15:55:54.204Z,male_vraiment_flat_190.wav,0,True,1782,2,0.142086,-108.166759
Auregan,23,0,2025-01-10T15:55:54.204Z,male_vraiment_flat_190.wav,0,True,1782,3,0.213129,-73.77841
Auregan,23,0,2025-01-10T15:55:54.204Z,male_vraiment_flat_190.wav,0,True,1782,4,0.284172,-109.839915
Auregan,23,0,2025-01-10T15:55:54.204Z,male_vraiment_flat_190.wav,0,True,1782,5,0.355215,2.895785
Auregan,23,0,2025-01-10T15:55:54.204Z,male_vraiment_flat_190.wav,0,True,1782,6,0.426259,14.515822
Auregan,23,0,2025-01-10T15:55:54.204Z,male_vraiment_flat_124.wav,1,False,1782,0,0.0,-7.963711
Auregan,23,0,2025-01-10T15:55:54.204Z,male_vraiment_flat_124.wav,1,False,1782,1,0.071043,-56.081883
Auregan,23,0,2025-01-10T15:55:54.204Z,male_vraiment_flat_124.wav,1,False,1782,2,0.142086,-78.115299
Auregan,23,0,2025-01-10T15:55:54.204Z,male_vraiment_flat_124.wav,1,False,1782,3,0.213129,-24.811935
Auregan,23,0,2025-01-10T15:55:54.204Z,male_vraiment_flat_124.wav,1,False,1782,4,0.284172,-9.003272
Auregan,23,0,2025-01-10T15:55:54.204Z,male_vraiment_flat_124.wav,1,False,1782,5,0.355215,13.712214
Auregan,23,0,2025-01-10T15:55:54.204Z,male_vraiment_flat_124.wav,1,False,1782,6,0.426259,140.04839
Auregan,24,0,2025-01-10T15:55:54.204Z,male_vraiment_flat_135.wav,0,False,2898,0,0.0,69.664553
Auregan,24,0,2025-01-10T15:55:54.204Z,male_vraiment_flat_135.wav,0,False,2898,1,0.071043,-40.692966
Auregan,24,0,2025-01-10T15:55:54.204Z,male_vraiment_flat_135.wav,0,False,2898,2,0.142086,-94.283336
Auregan,24,0,2025-01-10T15:55:54.204Z,male_vraiment_flat_135.wav,0,False,2898,3,0.213129,7.77791
Auregan,24,0,2025-01-10T15:55:54.204Z,male_vraiment_flat_135.wav,0,False,2898,4,0.284172,26.713191
Auregan,24,0,2025-01-10T15:55:54.204Z,male_vraiment_flat_135.wav,0,False,2898,5,0.355215,137.292776
Auregan,24,0,2025-01-10T15:55:54.204Z,male_vraiment_flat_135.wav,0,False,2898,6,0.426259,-136.153804
Auregan,24,0,2025-01-10T15:55:54.204Z,male_vraiment_flat_77.wav,1,True,2898,0,0.0,-123.4899
Auregan,24,0,2025-01-10T15:55:54.204Z,male_vraiment_flat_77.wav,1,True,2898,1,0.071043,8.804262
Auregan,24,0,2025-01-10T15:55:54.204Z,male_vraiment_flat_77.wav,1,True,2898,2,0.142086,-15.205517
Auregan,24,0,2025-01-10T15:55:54.204Z,male_vraiment_flat_77.wav,1,True,2898,3,0.213129,7.55094
Auregan,24,0,2025-01-10T15:55:54.204Z,male_vraiment_flat_77.wav,1,True,2898,4,0.284172,97.551926
Auregan,24,0,2025-01-10T15:55:54.204Z,male_vraiment_flat_77.wav,1,True,2898,5,0.355215,56.35246
Auregan,24,0,2025-01-10T15:55:54.204Z,male_vraiment_flat_77.wav,1,True,2898,6,0.426259,-146.779345
Auregan,25,0,2025-01-10T15:55:54.204Z,male_vraiment_flat_37.wav,0,True,3316,0,0.0,-50.449081
Auregan,25,0,2025-01-10T15:55:54.204Z,male_vraiment_flat_37.wav,0,True,3316,1,0.071043,28.423389
Auregan,25,0,2025-01-10T15:55:54.204Z,male_vraiment_flat_37.wav,0,True,3316,2,0.142086,-105.344692
Auregan,25,0,2025-01-10T15:55:54.204Z,male_vraiment_flat_37.wav,0,True,3316,3,0.213129,-99.811505
Auregan,25,0,2025-01-10T15:55:54.204Z,male_vraiment_flat_37.wav,0,True,3316,4,0.284172,142.69874
Auregan,25,0,2025-01-10T15:55:54.204Z,male_vraiment_flat_37.wav,0,True,3316,5,0.355215,-90.971946
Auregan,25,0,2025-01-10T15:55:54.204Z,male_vraiment_flat_37.wav,0,True,3316,6,0.426259,19.642948
Auregan,25,0,2025-01-10T15:55:54.204Z,male_vraiment_flat_52.wav,1,False,3316,0,0.0,-133.8014
Auregan,25,0,2025-01-10T15:55:54.204Z,male_vraiment_flat_52.wav,1,False,3316,1,0.071043,34.189717
Auregan,25,0,2025-01-10T15:55:54.204Z,male_vraiment_flat_52.wav,1,False,3316,2,0.142086,-145.714669
Auregan,25,0,2025-01-10T15:55:54.204Z,male_vraiment_flat_52.wav,1,False,3316,3,0.213129,1.717896
Auregan,25,0,2025-01-10T15:55:54.204Z,male_vraiment_flat_52.wav,1,False,3316,4,0.284172,99.036025
Auregan,25,0,2025-01-10T15:55:54.204Z,male_vraiment_flat_52.wav,1,False,3316,5,0.355215,56.473042
Auregan,25,0,2025-01-10T15:55:54.204Z,male_vraiment_flat_52.wav,1,False,3316,6,0.426259,113.578937
Auregan,26,0,2025-01-10T15:55:54.204Z,male_vraiment_flat_68.wav,0,False,815,0,0.0,-95.161618
Auregan,26,0,2025-01-10T15:55:54.204Z,male_vraiment_flat_68.wav,0,False,815,1,0.071043,-119.152564
Auregan,26,0,2025-01-10T15:55:54.204Z,male_vraiment_flat_68.wav,0,False,815,2,0.142086,18.051976
Auregan,26,0,2025-01-10T15:55:54.204Z,male_vraiment_flat_68.wav,0,False,815,3,0.213129,-26.870716
Auregan,26,0,2025-01-10T15:55:54.204Z,male_vraiment_flat_68.wav,0,False,815,4,0.284172,87.472746
Auregan,26,0,2025-01-10T15:55:54.204Z,male_vraiment_flat_68.wav,0,False,815,5,0.355215,-56.607347
Auregan,26,0,2025-01-10T15:55:54.204Z,male_vraiment_flat_68.wav,0,False,815,6,0.426259,148.066508
Auregan,26,0,2025-01-10T15:55:54.204Z,male_vraiment_flat_4.wav,1,True,815,0,0.0,98.226066
Auregan,26,0,2025-01-10T15:55:54.204Z,male_vraiment_flat_4.wav,1,True,815,1,0.071043,119.322928
Auregan,26,0,2025-01-10T15:55:54.204Z,male_vraiment_flat_4.wav,1,True,815,2,0.142086,-139.339853
Auregan,26,0,2025-01-10T15:55:54.204Z,male_vraiment_flat_4.wav,1,True,815,3,0.213129,-46.932317
Auregan,26,0,2025-01-10T15:55:54.204Z,male_vraiment_flat_4.wav,1,True,815,4,0.284172,-13.288809
Auregan,26,0,2025-01-10T15:55:54.204Z,male_vraiment_flat_4.wav,1,True,815,5,0.355215,94.861826
Auregan,26,0,2025-01-10T15:55:54.204Z,male_vraiment_flat_4.wav,1,True,815,6,0.426259,-84.397607
Auregan,27,0,2025-01-10T15:55:54.204Z,male_vraiment_flat_167.wav,0,True,4283,0,0.0,-97.24447
Auregan,27,0,2025-01-10T15:55:54.204Z,male_vraiment_flat_167.wav,0,True,4283,1,0.071043,55.519403
Auregan,27,0,2025-01-10T15:55:54.204Z,male_vraiment_flat_167.wav,0,True,4283,2,0.142086,-125.285214
Auregan,27,0,2025-01-10T15:55:54.204Z,male_vraiment_flat_167.wav,0,True,4283,3,0.213129,-87.843825
Auregan,27,0,2025-01-10T15:55:54.204Z,male_vraiment_flat_167.wav,0,True,4283,4,0.284172,-127.750284
Auregan,27,0,2025-01-10T15:55:54.204Z,male_vraiment_flat_167.wav,0,True,4283,5,0.355215,-93.631866
Auregan,27,0,2025-01-10T15:55:54.204Z,male_vraiment_flat_167.wav,0,True,4283,6,0.426259,6.691804
Auregan,27,0,2025-01-10T15:55:54.204Z,male_vraiment_flat_187.wav,1,False,4283,0,0.0,-30.40368
Auregan,27,0,2025-01-10T15:55:54.204Z,male_vraiment_flat_187.wav,1,False,4283,1,0.071043,-60.53129
Auregan,27,0,2025-01-10T15:55:54.204Z,male_vraiment_flat_187.wav,1,False,4283,2,0.142086,-84.335778
Auregan,27,0,2025-01-10T15:55:54.204Z,male_vraiment_flat_187.wav,1,False,4283,3,0.213129,-15.670285
Auregan,27,0,2025-01-10T15:55:54.204Z,male_vraiment_flat_187.wav,1,False,4283,4,0.284172,-56.852158
Auregan,27,0,2025-01-10T15:55:54.204Z,male_vraiment_flat_187.wav,1,False,4283,5,0.355215,50.399162
Auregan,27,0,2025-01-10T15:55:54.204Z,male_vraiment_flat_187.wav,1,False,4283,6,0.426259,83.384475
Auregan,28,0,2025-01-10T15:55:54.204Z,male_vraiment_flat_42.wav,0,True,4860,0,0.0,-6.709342
Auregan,28,0,2025-01-10T15:55:54.204Z,male_vraiment_flat_42.wav,0,True,4860,1,0.071043,35.704202
Auregan,28,0,2025-01-10T15:55:54.204Z,male_vraiment_flat_42.wav,0,True,4860,2,0.142086,-71.421689
Auregan,28,0,2025-01-10T15:55:54.204Z,male_vraiment_flat_42.wav,0,True,4860,3,0.213129,-126.906461
Auregan,28,0,2025-01-10T15:55:54.204Z,male_vraiment_flat_42.wav,0,True,4860,4,0.284172,10.231121
Auregan,28,0,2025-01-10T15:55:54.204Z,male_vraiment_flat_42.wav,0,True,4860,5,0.355215,128.933526
Auregan,28,0,2025-01-10T15:55:54.204Z,male_vraiment_flat_42.wav,0,True,4860,6,0.426259,-76.727395
Auregan,28,0,2025-01-10T15:55:54.204Z,male_vraiment_flat_18.wav,1,False,4860,0,0.0,-126.424441
Auregan,28,0,2025-01-10T15:55:54.204Z,male_vraiment_flat_18.wav,1,False,4860,1,0.071043,-57.286238
Auregan,28,0,2025-01-10T15:55:54.204Z,male_vraiment_flat_18.wav,1,False,4860,2,0.142086,14.494248
Auregan,28,0,2025-01-10T15:55:54.204Z,male_vraiment_flat_18.wav,1,False,4860,3,0.213129,11.325267
Auregan,28,0,2025-01-10T15:55:54.204Z,male_vraiment_flat_18.wav,1,False,4860,4,0.284172,-20.022709
Auregan,28,0,2025-01-10T15:55:54.204Z,male_vraiment_flat_18.wav,1,False,4860,5,0.355215,-67.838631
Auregan,28,0,2025-01-10T15:55:54.204Z,male_vraiment_flat_18.wav,1,False,4860,6,0.426259,-75.619086
Auregan,29,0,2025-01-10T15:55:54.204Z,male_vraiment_flat_199.wav,0,True,1941,0,0.0,-30.66401
Auregan,29,0,2025-01-10T15:55:54.204Z,male_vraiment_flat_199.wav,0,True,1941,1,0.071043,2.060872
Auregan,29,0,2025-01-10T15:55:54.204Z,male_vraiment_flat_199.wav,0,True,1941,2,0.142086,-136.256691
Auregan,29,0,2025-01-10T15:55:54.204Z,male_vraiment_flat_199.wav,0,True,1941,3,0.213129,20.654546
Auregan,29,0,2025-01-10T15:55:54.204Z,male_vraiment_flat_199.wav,0,True,1941,4,0.284172,41.179386
Auregan,29,0,2025-01-10T15:55:54.204Z,male_vraiment_flat_199.wav,0,True,1941,5,0.355215,1.343346
Auregan,29,0,2025-01-10T15:55:54.204Z,male_vraiment_flat_199.wav,0,True,1941,6,0.426259,140.228288
Auregan,29,0,2025-01-10T15:55:54.204Z,male_vraiment_flat_47.wav,1,False,1941,0,0.0,11.243959
Auregan,29,0,2025-01-10T15:55:54.204Z,male_vraiment_flat_47.wav,1,False,1941,1,0.071043,-131.885563
Auregan,29,0,2025-01-10T15:55:54.204Z,male_vraiment_flat_47.wav,1,False,1941,2,0.142086,22.720944
Auregan,29,0,2025-01-10T15:55:54.204Z,male_vraiment_flat_47.wav,1,False,1941,3,0.213129,-98.981706
Auregan,29,0,2025-01-10T15:55:54.204Z,male_vraiment_flat_47.wav,1,False,1941,4,0.284172,-117.392555
Auregan,29,0,2025-01-10T15:55:54.204Z,male_vraiment_flat_47.wav,1,False,1941,5,0.355215,-7.362816
Auregan,29,0,2025-01-10T15:55:54.204Z,male_vraiment_flat_47.wav,1,False,1941,6,0.426259,149.963589
Auregan,30,0,2025-01-10T15:55:54.204Z,male_vraiment_flat_72.wav,0,True,2677,0,0.0,-108.464526
Auregan,30,0,2025-01-10T15:55:54.204Z,male_vraiment_flat_72.wav,0,True,2677,1,0.071043,78.835335
Auregan,30,0,2025-01-10T15:55:54.204Z,male_vraiment_flat_72.wav,0,True,2677,2,0.142086,134.553834
Auregan,30,0,2025-01-10T15:55:54.204Z,male_vraiment_flat_72.wav,0,True,2677,3,0.213129,5.396534
Auregan,30,0,2025-01-10T15:55:54.204Z,male_vraiment_flat_72.wav,0,True,2677,4,0.284172,7.798595
Auregan,30,0,2025-01-10T15:55:54.204Z,male_vraiment_flat_72.wav,0,True,2677,5,0.355215,65.510626
Auregan,30,0,2025-01-10T15:55:54.204Z,male_vraiment_flat_72.wav,0,True,2677,6,0.426259,-103.79803
Auregan,30,0,2025-01-10T15:55:54.204Z,male_vraiment_flat_171.wav,1,False,2677,0,0.0,-132.910898
Auregan,30,0,2025-01-10T15:55:54.204Z,male_vraiment_flat_171.wav,1,False,2677,1,0.071043,-40.348113
Auregan,30,0,2025-01-10T15:55:54.204Z,male_vraiment_flat_171.wav,1,False,2677,2,0.142086,-144.469254
Auregan,30,0,2025-01-10T15:55:54.204Z,male_vraiment_flat_171.wav,1,False,2677,3,0.213129,-148.365603
Auregan,30,0,2025-01-10T15:55:54.204Z,male_vraiment_flat_171.wav,1,False,2677,4,0.284172,29.209812
Auregan,30,0,2025-01-10T15:55:54.204Z,male_vraiment_flat_171.wav,1,False,2677,5,0.355215,-68.789467
Auregan,30,0,2025-01-10T15:55:54.204Z,male_vraiment_flat_171.wav,1,False,2677,6,0.426259,116.539457
Auregan,31,0,2025-01-10T15:55:54.204Z,male_vraiment_flat_97.wav,0,True,1616,0,0.0,-82.753908
Auregan,31,0,2025-01-10T15:55:54.204Z,male_vraiment_flat_97.wav,0,True,1616,1,0.071043,-85.130238
Auregan,31,0,2025-01-10T15:55:54.204Z,male_vraiment_flat_97.wav,0,True,1616,2,0.142086,-72.001027
Auregan,31,0,2025-01-10T15:55:54.204Z,male_vraiment_flat_97.wav,0,True,1616,3,0.213129,-75.442204
Auregan,31,0,2025-01-10T15:55:54.204Z,male_vraiment_flat_97.wav,0,True,1616,4,0.284172,147.061792
Auregan,31,0,2025-01-10T15:55:54.204Z,male_vraiment_flat_97.wav,0,True,1616,5,0.355215,126.876511
Auregan,31,0,2025-01-10T15:55:54.204Z,male_vraiment_flat_97.wav,0,True,1616,6,0.426259,96.208887
Auregan,31,0,2025-01-10T15:55:54.204Z,male_vraiment_flat_102.wav,1,False,1616,0,0.0,-40.599677
Auregan,31,0,2025-01-10T15:55:54.204Z,male_vraiment_flat_102.wav,1,False,1616,1,0.071043,73.64885
Auregan,31,0,2025-01-10T15:55:54.204Z,male_vraiment_flat_102.wav,1,False,1616,2,0.142086,15.923898
Auregan,31,0,2025-01-10T15:55:54.204Z,male_vraiment_flat_102.wav,1,False,1616,3,0.213129,-109.098836
Auregan,31,0,2025-01-10T15:55:54.204Z,male_vraiment_flat_102.wav,1,False,1616,4,0.284172,134.536605
Auregan,31,0,2025-01-10T15:55:54.204Z,male_vraiment_flat_102.wav,1,False,1616,5,0.355215,127.784516
Auregan,31,0,2025-01-10T15:55:54.204Z,male_vraiment_flat_102.wav,1,False,1616,6,0.426259,-136.569602
Auregan,32,0,2025-01-10T15:55:54.204Z,male_vraiment_flat_105.wav,0,True,1404,0,0.0,125.556012
Auregan,32,0,2025-01-10T15:55:54.204Z,male_vraiment_flat_105.wav,0,True,1404,1,0.071043,102.885047
Auregan,32,0,2025-01-10T15:55:54.204Z,male_vraiment_flat_105.wav,0,True,1404,2,0.142086,-23.318884
Auregan,32,0,2025-01-10T15:55:54.204Z,male_vraiment_flat_105.wav,0,True,1404,3,0.213129,96.270063
Auregan,32,0,2025-01-10T15:55:54.204Z,male_vraiment_flat_105.wav,0,True,1404,4,0.284172,-32.661499
Auregan,32,0,2025-01-10T15:55:54.204Z,male_vraiment_flat_105.wav,0,True,1404,5,0.355215,-7.829717
Auregan,32,0,2025-01-10T15:55:54.204Z,male_vraiment_flat_105.wav,0,True,1404,6,0.426259,-13.047753
Auregan,32,0,2025-01-10T15:55:54.204Z,male_vraiment_flat_155.wav,1,False,1404,0,0.0,-140.284917
Auregan,32,0,2025-01-10T15:55:54.204Z,male_vraiment_flat_155.wav,1,False,1404,1,0.071043,56.043903
Auregan,32,0,2025-01-10T15:55:54.204Z,male_vraiment_flat_155.wav,1,False,1404,2,0.142086,-2.142699
Auregan,32,0,2025-01-10T15:55:54.204Z,male_vraiment_flat_155.wav,1,False,1404,3,0.213129,-41.999388
Auregan,32,0,2025-01-10T15:55:54.204Z,male_vraiment_flat_155.wav,1,False,1404,4,0.284172,-69.522618
Auregan,32,0,2025-01-10T15:55:54.204Z,male_vraiment_flat_155.wav,1,False,1404,5,0.355215,29.697532
Auregan,32,0,2025-01-10T15:55:54.204Z,male_vraiment_flat_155.wav,1,False,1404,6,0.426259,40.565741
Auregan,33,0,2025-01-10T15:55:54.204Z,male_vraiment_flat_32.wav,0,False,2592,0,0.0,-83.957947
Auregan,33,0,2025-01-10T15:55:54.204Z,male_vraiment_flat_32.wav,0,False,2592,1,0.071043,68.475222
Auregan,33,0,2025-01-10T15:55:54.204Z,male_vraiment_flat_32.wav,0,False,2592,2,0.142086,-59.489465
Auregan,33,0,2025-01-10T15:55:54.204Z,male_vraiment_flat_32.wav,0,False,2592,3,0.213129,64.566697
Auregan,33,0,2025-01-10T15:55:54.204Z,male_vraiment_flat_32.wav,0,False,2592,4,0.284172,-27.267557
Auregan,33,0,2025-01-10T15:55:54.204Z,male_vraiment_flat_32.wav,0,False,2592,5,0.355215,94.356275
Auregan,33,0,2025-01-10T15:55:54.204Z,male_vraiment_flat_32.wav,0,False,2592,6,0.426259,27.666308
Auregan,33,0,2025-01-10T15:55:54.204Z,male_vraiment_flat_60.wav,1,True,2592,0,0.0,-89.296237
Auregan,33,0,2025-01-10T15:55:54.204Z,male_vraiment_flat_60.wav,1,True,2592,1,0.071043,0.647875
Auregan,33,0,2025-01-10T15:55:54.204Z,male_vraiment_flat_60.wav,1,True,2592,2,0.142086,-124.228045
Auregan,33,0,2025-01-10T15:55:54.204Z,male_vraiment_flat_60.wav,1,True,2592,3,0.213129,-147.3659
Auregan,33,0,2025-01-10T15:55:54.204Z,male_vraiment_flat_60.wav,1,True,2592,4,0.284172,-7.42803
Auregan,33,0,2025-01-10T15:55:54.204Z,male_vraiment_flat_60.wav,1,True,2592,5,0.355215,-42.828577
Auregan,33,0,2025-01-10T15:55:54.204Z,male_vraiment_flat_60.wav,1,True,2592,6,0.426259,-114.882786
Auregan,34,0,2025-01-10T15:55:54.204Z,male_vraiment_flat_162.wav,0,True,972,0,0.0,-28.080103
Auregan,34,0,2025-01-10T15:55:54.204Z,male_vraiment_flat_162.wav,0,True,972,1,0.071043,-58.839442
Auregan,34,0,2025-01-10T15:55:54.204Z,male_vraiment_flat_162.wav,0,True,972,2,0.142086,8.883261
Auregan,34,0,2025-01-10T15:55:54.204Z,male_vraiment_flat_162.wav,0,True,972,3,0.213129,109.746189
Auregan,34,0,2025-01-10T15:55:54.204Z,male_vraiment_flat_162.wav,0,True,972,4,0.284172,134.765505
Auregan,34,0,2025-01-10T15:55:54.204Z,male_vraiment_flat_162.wav,0,True,972,5,0.355215,-8.935646
Auregan,34,0,2025-01-10T15:55:54.204Z,male_vraiment_flat_162.wav,0,True,972,6,0.426259,114.162759
Auregan,34,0,2025-01-10T15:55:54.204Z,male_vraiment_flat_1.wav,1,False,972,0,0.0,-87.527114
Auregan,34,0,2025-01-10T15:55:54.204Z,male_vraiment_flat_1.wav,1,False,972,1,0.071043,-24.885537
Auregan,34,0,2025-01-10T15:55:54.204Z,male_vraiment_flat_1.wav,1,False,972,2,0.142086,25.492299
Auregan,34,0,2025-01-10T15:55:54.204Z,male_vraiment_flat_1.wav,1,False,972,3,0.213129,-85.109295
Auregan,34,0,2025-01-10T15:55:54.204Z,male_vraiment_flat_1.wav,1,False,972,4,0.284172,41.982644
Auregan,34,0,2025-01-10T15:55:54.204Z,male_vraiment_flat_1.wav,1,False,972,5,0.355215,-147.448489
Auregan,34,0,2025-01-10T15:55:54.204Z,male_vraiment_flat_1.wav,1,False,972,6,0.426259,3.412386
Auregan,35,0,2025-01-10T15:55:54.204Z,male_vraiment_flat_165.wav,0,False,6240,0,0.0,-133.486308
Auregan,35,0,2025-01-10T15:55:54.204Z,male_vraiment_flat_165.wav,0,False,6240,1,0.071043,-51.704384
Auregan,35,0,2025-01-10T15:55:54.204Z,male_vraiment_flat_165.wav,0,False,6240,2,0.142086,123.73441
Auregan,35,0,2025-01-10T15:55:54.204Z,male_vraiment_flat_165.wav,0,False,6240,3,0.213129,-122.063627
Auregan,35,0,2025-01-10T15:55:54.204Z,male_vraiment_flat_165.wav,0,False,6240,4,0.284172,105.373754
Auregan,35,0,2025-01-10T15:55:54.204Z,male_vraiment_flat_165.wav,0,False,6240,5,0.355215,42.489978
Auregan,35,0,2025-01-10T15:55:54.204Z,male_vraiment_flat_165.wav,0,False,6240,6,0.426259,65.5363
Auregan,35,0,2025-01-10T15:55:54.204Z,male_vraiment_flat_17.wav,1,True,6240,0,0.0,91.198655
Auregan,35,0,2025-01-10T15:55:54.204Z,male_vraiment_flat_17.wav,1,True,6240,1,0.071043,44.952547
Auregan,35,0,2025-01-10T15:55:54.204Z,male_vraiment_flat_17.wav,1,True,6240,2,0.142086,-82.852461
Auregan,35,0,2025-01-10T15:55:54.204Z,male_vraiment_flat_17.wav,1,True,6240,3,0.213129,-89.451177
Auregan,35,0,2025-01-10T15:55:54.204Z,male_vraiment_flat_17.wav,1,True,6240,4,0.284172,-149.534475
Auregan,35,0,2025-01-10T15:55:54.204Z,male_vraiment_flat_17.wav,1,True,6240,5,0.355215,-107.621144
Auregan,35,0,2025-01-10T15:55:54.204Z,male_vraiment_flat_17.wav,1,True,6240,6,0.426259,-93.535165
Auregan,36,0,2025-01-10T15:55:54.204Z,male_vraiment_flat_6.wav,0,True,528,0,0.0,99.637695
Auregan,36,0,2025-01-10T15:55:54.204Z,male_vraiment_flat_6.wav,0,True,528,1,0.071043,129.019395
Auregan,36,0,2025-01-10T15:55:54.204Z,male_vraiment_flat_6.wav,0,True,528,2,0.142086,85.352544
Auregan,36,0,2025-01-10T15:55:54.204Z,male_vraiment_flat_6.wav,0,True,528,3,0.213129,122.275637
Auregan,36,0,2025-01-10T15:55:54.204Z,male_vraiment_flat_6.wav,0,True,528,4,0.284172,45.838224
Auregan,36,0,2025-01-10T15:55:54.204Z,male_vraiment_flat_6.wav,0,True,528,5,0.355215,149.126562
Auregan,36,0,2025-01-10T15:55:54.204Z,male_vraiment_flat_6.wav,0,True,528,6,0.426259,9.632372
Auregan,36,0,2025-01-10T15:55:54.204Z,male_vraiment_flat_64.wav,1,False,528,0,0.0,113.461811
Auregan,36,0,2025-01-10T15:55:54.204Z,male_vraiment_flat_64.wav,1,False,528,1,0.071043,60.375974
Auregan,36,0,2025-01-10T15:55:54.204Z,male_vraiment_flat_64.wav,1,False,528,2,0.142086,-103.339599
Auregan,36,0,2025-01-10T15:55:54.204Z,male_vraiment_flat_64.wav,1,False,528,3,0.213129,103.179307
Auregan,36,0,2025-01-10T15:55:54.204Z,male_vraiment_flat_64.wav,1,False,528,4,0.284172,81.101135
Auregan,36,0,2025-01-10T15:55:54.204Z,male_vraiment_flat_64.wav,1,False,528,5,0.355215,-3.861127
Auregan,36,0,2025-01-10T15:55:54.204Z,male_vraiment_flat_64.wav,1,False,528,6,0.426259,-77.158959
Auregan,37,0,2025-01-10T15:55:54.204Z,male_vraiment_flat_30.wav,0,False,753,0,0.0,32.600333
Auregan,37,0,2025-01-10T15:55:54.204Z,male_vraiment_flat_30.wav,0,False,753,1,0.071043,42.125884
Auregan,37,0,2025-01-10T15:55:54.204Z,male_vraiment_flat_30.wav,0,False,753,2,0.142086,124.172285
Auregan,37,0,2025-01-10T15:55:54.204Z,male_vraiment_flat_30.wav,0,False,753,3,0.213129,52.679052
Auregan,37,0,2025-01-10T15:55:54.204Z,male_vraiment_flat_30.wav,0,False,753,4,0.284172,-111.889461
Auregan,37,0,2025-01-10T15:55:54.204Z,male_vraiment_flat_30.wav,0,False,753,5,0.355215,64.478579
Auregan,37,0,2025-01-10T15:55:54.204Z,male_vraiment_flat_30.wav,0,False,753,6,0.426259,22.02388
Auregan,37,0,2025-01-10T15:55:54.204Z,male_vraiment_flat_61.wav,1,True,753,0,0.0,-131.156457
Auregan,37,0,2025-01-10T15:55:54.204Z,male_vraiment_flat_61.wav,1,True,753,1,0.071043,-97.865916
Auregan,37,0,2025-01-10T15:55:54.204Z,male_vraiment_flat_61.wav,1,True,753,2,0.142086,61.528867
Auregan,37,0,2025-01-10T15:55:54.204Z,male_vraiment_flat_61.wav,1,True,753,3,0.213129,-10.532302
Auregan,37,0,2025-01-10T15:55:54.204Z,male_vraiment_flat_61.wav,1,True,753,4,0.284172,-59.47107
Auregan,37,0,2025-01-10T15:55:54.204Z,male_vraiment_flat_61.wav,1,True,753,5,0.355215,77.665776
Auregan,37,0,2025-01-10T15:55:54.204Z,male_vraiment_flat_61.wav,1,True,753,6,0.426259,-95.375701
Auregan,38,0,2025-01-10T15:55:54.204Z,male_vraiment_flat_151.wav,0,False,506,0,0.0,-67.748525
Auregan,38,0,2025-01-10T15:55:54.204Z,male_vraiment_flat_151.wav,0,False,506,1,0.071043,54.361913
Auregan,38,0,2025-01-10T15:55:54.204Z,male_vraiment_flat_151.wav,0,False,506,2,0.142086,-48.392138
Auregan,38,0,2025-01-10T15:55:54.204Z,male_vraiment_flat_151.wav,0,False,506,3,0.213129,35.257299
Auregan,38,0,2025-01-10T15:55:54.204Z,male_vraiment_flat_151.wav,0,False,506,4,0.284172,30.428121
Auregan,38,0,2025-01-10T15:55:54.204Z,male_vraiment_flat_151.wav,0,False,506,5,0.355215,28.910983
Auregan,38,0,2025-01-10T15:55:54.204Z,male_vraiment_flat_151.wav,0,False,506,6,0.426259,-22.593444
Auregan,38,0,2025-01-10T15:55:54.204Z,male_vraiment_flat_88.wav,1,True,506,0,0.0,-104.432443
Auregan,38,0,2025-01-10T15:55:54.204Z,male_vraiment_flat_88.wav,1,True,506,1,0.071043,71.901933
Auregan,38,0,2025-01-10T15:55:54.204Z,male_vraiment_flat_88.wav,1,True,506,2,0.142086,62.017491
Auregan,38,0,2025-01-10T15:55:54.204Z,male_vraiment_flat_88.wav,1,True,506,3,0.213129,-148.109936
Auregan,38,0,2025-01-10T15:55:54.204Z,male_vraiment_flat_88.wav,1,True,506,4,0.284172,21.087169
Auregan,38,0,2025-01-10T15:55:54.204Z,male_vraiment_flat_88.wav,1,True,506,5,0.355215,98.79336
Auregan,38,0,2025-01-10T15:55:54.204Z,male_vraiment_flat_88.wav,1,True,506,6,0.426259,84.9608
Auregan,39,0,2025-01-10T15:55:54.204Z,male_vraiment_flat_112.wav,0,True,747,0,0.0,40.318333
Auregan,39,0,2025-01-10T15:55:54.204Z,male_vraiment_flat_112.wav,0,True,747,1,0.071043,28.779991
Auregan,39,0,2025-01-10T15:55:54.204Z,male_vraiment_flat_112.wav,0,True,747,2,0.142086,-86.990654
Auregan,39,0,2025-01-10T15:55:54.204Z,male_vraiment_flat_112.wav,0,True,747,3,0.213129,-136.064498
Auregan,39,0,2025-01-10T15:55:54.204Z,male_vraiment_flat_112.wav,0,True,747,4,0.284172,89.286191
Auregan,39,0,2025-01-10T15:55:54.204Z,male_vraiment_flat_112.wav,0,True,747,5,0.355215,99.616935
Auregan,39,0,2025-01-10T15:55:54.204Z,male_vraiment_flat_112.wav,0,True,747,6,0.426259,-61.253639
Auregan,39,0,2025-01-10T15:55:54.204Z,male_vraiment_flat_36.wav,1,False,747,0,0.0,-33.83796
Auregan,39,0,2025-01-10T15:55:54.204Z,male_vraiment_flat_36.wav,1,False,747,1,0.071043,102.134309
Auregan,39,0,2025-01-10T15:55:54.204Z,male_vraiment_flat_36.wav,1,False,747,2,0.142086,100.949665
Auregan,39,0,2025-01-10T15:55:54.204Z,male_vraiment_flat_36.wav,1,False,747,3,0.213129,77.352428
Auregan,39,0,2025-01-10T15:55:54.204Z,male_vraiment_flat_36.wav,1,False,747,4,0.284172,-1.995321
Auregan,39,0,2025-01-10T15:55:54.204Z,male_vraiment_flat_36.wav,1,False,747,5,0.355215,-13.382838
Auregan,39,0,2025-01-10T15:55:54.204Z,male_vraiment_flat_36.wav,1,False,747,6,0.426259,-42.807835
Auregan,40,0,2025-01-10T15:55:54.204Z,male_vraiment_flat_121.wav,0,True,809,0,0.0,-58.637887
Auregan,40,0,2025-01-10T15:55:54.204Z,male_vraiment_flat_121.wav,0,True,809,1,0.071043,-104.347196
Auregan,40,0,2025-01-10T15:55:54.204Z,male_vraiment_flat_121.wav,0,True,809,2,0.142086,149.905377
Auregan,40,0,2025-01-10T15:55:54.204Z,male_vraiment_flat_121.wav,0,True,809,3,0.213129,-98.681631
Auregan,40,0,2025-01-10T15:55:54.204Z,male_vraiment_flat_121.wav,0,True,809,4,0.284172,-147.265274
Auregan,40,0,2025-01-10T15:55:54.204Z,male_vraiment_flat_121.wav,0,True,809,5,0.355215,64.587538
Auregan,40,0,2025-01-10T15:55:54.204Z,male_vraiment_flat_121.wav,0,True,809,6,0.426259,26.674605
Auregan,40,0,2025-01-10T15:55:54.204Z,male_vraiment_flat_129.wav,1,False,809,0,0.0,121.236122
Auregan,40,0,2025-01-10T15:55:54.204Z,male_vraiment_flat_129.wav,1,False,809,1,0.071043,8.396736
Auregan,40,0,2025-01-10T15:55:54.204Z,male_vraiment_flat_129.wav,1,False,809,2,0.142086,-17.691364
Auregan,40,0,2025-01-10T15:55:54.204Z,male_vraiment_flat_129.wav,1,False,809,3,0.213129,73.711335
Auregan,40,0,2025-01-10T15:55:54.204Z,male_vraiment_flat_129.wav,1,False,809,4,0.284172,-117.430618
Auregan,40,0,2025-01-10T15:55:54.204Z,male_vraiment_flat_129.wav,1,False,809,5,0.355215,-12.936057
Auregan,40,0,2025-01-10T15:55:54.204Z,male_vraiment_flat_129.wav,1,False,809,6,0.426259,-63.494285
Auregan,41,0,2025-01-10T15:55:54.204Z,male_vraiment_flat_84.wav,0,False,2980,0,0.0,79.222174
Auregan,41,0,2025-01-10T15:55:54.204Z,male_vraiment_flat_84.wav,0,False,2980,1,0.071043,61.816109
Auregan,41,0,2025-01-10T15:55:54.204Z,male_vraiment_flat_84.wav,0,False,2980,2,0.142086,-111.712238
Auregan,41,0,2025-01-10T15:55:54.204Z,male_vraiment_flat_84.wav,0,False,2980,3,0.213129,96.584947
Auregan,41,0,2025-01-10T15:55:54.204Z,male_vraiment_flat_84.wav,0,False,2980,4,0.284172,-11.292098
Auregan,41,0,2025-01-10T15:55:54.204Z,male_vraiment_flat_84.wav,0,False,2980,5,0.355215,57.720124
Auregan,41,0,2025-01-10T15:55:54.204Z,male_vraiment_flat_84.wav,0,False,2980,6,0.426259,-122.021307
Auregan,41,0,2025-01-10T15:55:54.204Z,male_vraiment_flat_118.wav,1,True,2980,0,0.0,126.187147
Auregan,41,0,2025-01-10T15:55:54.204Z,male_vraiment_flat_118.wav,1,True,2980,1,0.071043,44.969184
Auregan,41,0,2025-01-10T15:55:54.204Z,male_vraiment_flat_118.wav,1,True,2980,2,0.142086,-108.017243
Auregan,41,0,2025-01-10T15:55:54.204Z,male_vraiment_flat_118.wav,1,True,2980,3,0.213129,6.480803
Auregan,41,0,2025-01-10T15:55:54.204Z,male_vraiment_flat_118.wav,1,True,2980,4,0.284172,89.811831
Auregan,41,0,2025-01-10T15:55:54.204Z,male_vraiment_flat_118.wav,1,True,2980,5,0.355215,60.034007
Auregan,41,0,2025-01-10T15:55:54.204Z,male_vraiment_flat_118.wav,1,True,2980,6,0.426259,63.317816
Auregan,42,0,2025-01-10T15:55:54.204Z,male_vraiment_flat_59.wav,0,False,740,0,0.0,-36.418372
Auregan,42,0,2025-01-10T15:55:54.204Z,male_vraiment_flat_59.wav,0,False,740,1,0.071043,84.104587
Auregan,42,0,2025-01-10T15:55:54.204Z,male_vraiment_flat_59.wav,0,False,740,2,0.142086,132.070943
Auregan,42,0,2025-01-10T15:55:54.204Z,male_vraiment_flat_59.wav,0,False,740,3,0.213129,-36.088233
Auregan,42,0,2025-01-10T15:55:54.204Z,male_vraiment_flat_59.wav,0,False,740,4,0.284172,-93.351425
Auregan,42,0,2025-01-10T15:55:54.204Z,male_vraiment_flat_59.wav,0,False,740,5,0.355215,57.665522
Auregan,42,0,2025-01-10T15:55:54.204Z,male_vraiment_flat_59.wav,0,False,740,6,0.426259,137.323922
Auregan,42,0,2025-01-10T15:55:54.204Z,male_vraiment_flat_182.wav,1,True,740,0,0.0,20.855134
Auregan,42,0,2025-01-10T15:55:54.204Z,male_vraiment_flat_182.wav,1,True,740,1,0.071043,131.000404
Auregan,42,0,2025-01-10T15:55:54.204Z,male_vraiment_flat_182.wav,1,True,740,2,0.142086,-24.691908
Auregan,42,0,2025-01-10T15:55:54.204Z,male_vraiment_flat_182.wav,1,True,740,3,0.213129,128.422786
Auregan,42,0,2025-01-10T15:55:54.204Z,male_vraiment_flat_182.wav,1,True,740,4,0.284172,-128.848387
Auregan,42,0,2025-01-10T15:55:54.204Z,male_vraiment_flat_182.wav,1,True,740,5,0.355215,118.792618
Auregan,42,0,2025-01-10T15:55:54.204Z,male_vraiment_flat_182.wav,1,True,740,6,0.426259,-92.475253
Auregan,43,0,2025-01-10T15:55:54.204Z,male_vraiment_flat_164.wav,0,True,1457,0,0.0,-99.029475
Auregan,43,0,2025-01-10T15:55:54.204Z,male_vraiment_flat_164.wav,0,True,1457,1,0.071043,-83.219544
Auregan,43,0,2025-01-10T15:55:54.204Z,male_vraiment_flat_164.wav,0,True,1457,2,0.142086,-76.160804
Auregan,43,0,2025-01-10T15:55:54.204Z,male_vraiment_flat_164.wav,0,True,1457,3,0.213129,-60.412119
Auregan,43,0,2025-01-10T15:55:54.204Z,male_vraiment_flat_164.wav,0,True,1457,4,0.284172,-135.438027
Auregan,43,0,2025-01-10T15:55:54.204Z,male_vraiment_flat_164.wav,0,True,1457,5,0.355215,-30.546522
Auregan,43,0,2025-01-10T15:55:54.204Z,male_vraiment_flat_164.wav,0,True,1457,6,0.426259,-142.367635
Auregan,43,0,2025-01-10T15:55:54.204Z,male_vraiment_flat_145.wav,1,False,1457,0,0.0,-57.363512
Auregan,43,0,2025-01-10T15:55:54.204Z,male_vraiment_flat_145.wav,1,False,1457,1,0.071043,98.212837
Auregan,43,0,2025-01-10T15:55:54.204Z,male_vraiment_flat_145.wav,1,False,1457,2,0.142086,141.769894
Auregan,43,0,2025-01-10T15:55:54.204Z,male_vraiment_flat_145.wav,1,False,1457,3,0.213129,137.732142
Auregan,43,0,2025-01-10T15:55:54.204Z,male_vraiment_flat_145.wav,1,False,1457,4,0.284172,20.834317
Auregan,43,0,2025-01-10T15:55:54.204Z,male_vraiment_flat_145.wav,1,False,1457,5,0.355215,-134.97235
Auregan,43,0,2025-01-10T15:55:54.204Z,male_vraiment_flat_145.wav,1,False,1457,6,0.426259,-28.162434
Auregan,44,0,2025-01-10T15:55:54.204Z,male_vraiment_flat_136.wav,0,True,1916,0,0.0,-47.296851
Auregan,44,0,2025-01-10T15:55:54.204Z,male_vraiment_flat_136.wav,0,True,1916,1,0.071043,-58.43007
Auregan,44,0,2025-01-10T15:55:54.204Z,male_vraiment_flat_136.wav,0,True,1916,2,0.142086,-0.935981
Auregan,44,0,2025-01-10T15:55:54.204Z,male_vraiment_flat_136.wav,0,True,1916,3,0.213129,-128.690729
Auregan,44,0,2025-01-10T15:55:54.204Z,male_vraiment_flat_136.wav,0,True,1916,4,0.284172,49.658863
Auregan,44,0,2025-01-10T15:55:54.204Z,male_vraiment_flat_136.wav,0,True,1916,5,0.355215,66.569477
Auregan,44,0,2025-01-10T15:55:54.204Z,male_vraiment_flat_136.wav,0,True,1916,6,0.426259,92.598952
Auregan,44,0,2025-01-10T15:55:54.204Z,male_vraiment_flat_39.wav,1,False,1916,0,0.0,111.266402
Auregan,44,0,2025-01-10T15:55:54.204Z,male_vraiment_flat_39.wav,1,False,1916,1,0.071043,99.799676
Auregan,44,0,2025-01-10T15:55:54.204Z,male_vraiment_flat_39.wav,1,False,1916,2,0.142086,45.272629
Auregan,44,0,2025-01-10T15:55:54.204Z,male_vraiment_flat_39.wav,1,False,1916,3,0.213129,-145.406877
Auregan,44,0,2025-01-10T15:55:54.204Z,male_vraiment_flat_39.wav,1,False,1916,4,0.284172,46.363124
Auregan,44,0,2025-01-10T15:55:54.204Z,male_vraiment_flat_39.wav,1,False,1916,5,0.355215,90.908213
Auregan,44,0,2025-01-10T15:55:54.204Z,male_vraiment_flat_39.wav,1,False,1916,6,0.426259,-13.802222
Auregan,45,0,2025-01-10T15:55:54.204Z,male_vraiment_flat_8.wav,0,False,2071,0,0.0,88.027847
Auregan,45,0,2025-01-10T15:55:54.204Z,male_vraiment_flat_8.wav,0,False,2071,1,0.071043,-108.976227
Auregan,45,0,2025-01-10T15:55:54.204Z,male_vraiment_flat_8.wav,0,False,2071,2,0.142086,36.591048
Auregan,45,0,2025-01-10T15:55:54.204Z,male_vraiment_flat_8.wav,0,False,2071,3,0.213129,7.260113
Auregan,45,0,2025-01-10T15:55:54.204Z,male_vraiment_flat_8.wav,0,False,2071,4,0.284172,-133.690195
Auregan,45,0,2025-01-10T15:55:54.204Z,male_vraiment_flat_8.wav,0,False,2071,5,0.355215,9.464811
Auregan,45,0,2025-01-10T15:55:54.204Z,male_vraiment_flat_8.wav,0,False,2071,6,0.426259,-67.780032
Auregan,45,0,2025-01-10T15:55:54.204Z,male_vraiment_flat_131.wav,1,True,2071,0,0.0,107.175705
Auregan,45,0,2025-01-10T15:55:54.204Z,male_vraiment_flat_131.wav,1,True,2071,1,0.071043,81.997533
Auregan,45,0,2025-01-10T15:55:54.204Z,male_vraiment_flat_131.wav,1,True,2071,2,0.142086,53.236564
Auregan,45,0,2025-01-10T15:55:54.204Z,male_vraiment_flat_131.wav,1,True,2071,3,0.213129,108.962563
Auregan,45,0,2025-01-10T15:55:54.204Z,male_vraiment_flat_131.wav,1,True,2071,4,0.284172,-22.910156
Auregan,45,0,2025-01-10T15:55:54.204Z,male_vraiment_flat_131.wav,1,True,2071,5,0.355215,133.743101
Auregan,45,0,2025-01-10T15:55:54.204Z,male_vraiment_flat_131.wav,1,True,2071,6,0.426259,98.652547
Auregan,46,0,2025-01-10T15:55:54.204Z,male_vraiment_flat_133.wav,0,True,1254,0,0.0,-33.116176
Auregan,46,0,2025-01-10T15:55:54.204Z,male_vraiment_flat_133.wav,0,True,1254,1,0.071043,-79.722902
Auregan,46,0,2025-01-10T15:55:54.204Z,male_vraiment_flat_133.wav,0,True,1254,2,0.142086,-0.174059
Auregan,46,0,2025-01-10T15:55:54.204Z,male_vraiment_flat_133.wav,0,True,1254,3,0.213129,82.274364
Auregan,46,0,2025-01-10T15:55:54.204Z,male_vraiment_flat_133.wav,0,True,1254,4,0.284172,-109.731995
Auregan,46,0,2025-01-10T15:55:54.204Z,male_vraiment_flat_133.wav,0,True,1254,5,0.355215,-72.48927
Auregan,46,0,2025-01-10T15:55:54.204Z,male_vraiment_flat_133.wav,0,True,1254,6,0.426259,11.511705
Auregan,46,0,2025-01-10T15:55:54.204Z,male_vraiment_flat_44.wav,1,False,1254,0,0.0,-41.207511
Auregan,46,0,2025-01-10T15:55:54.204Z,male_vraiment_flat_44.wav,1,False,1254,1,0.071043,-36.343841
Auregan,46,0,2025-01-10T15:55:54.204Z,male_vraiment_flat_44.wav,1,False,1254,2,0.142086,111.477084
Auregan,46,0,2025-01-10T15:55:54.204Z,male_vraiment_flat_44.wav,1,False,1254,3,0.213129,5.942406
Auregan,46,0,2025-01-10T15:55:54.204Z,male_vraiment_flat_44.wav,1,False,1254,4,0.284172,108.539673
Auregan,46,0,2025-01-10T15:55:54.204Z,male_vraiment_flat_44.wav,1,False,1254,5,0.355215,-120.732661
Auregan,46,0,2025-01-10T15:55:54.204Z,male_vraiment_flat_44.wav,1,False,1254,6,0.426259,-22.824839
Auregan,47,0,2025-01-10T15:55:54.204Z,male_vraiment_flat_100.wav,0,True,1169,0,0.0,43.543409
Auregan,47,0,2025-01-10T15:55:54.204Z,male_vraiment_flat_100.wav,0,True,1169,1,0.071043,103.015481
Auregan,47,0,2025-01-10T15:55:54.204Z,male_vraiment_flat_100.wav,0,True,1169,2,0.142086,72.119204
Auregan,47,0,2025-01-10T15:55:54.204Z,male_vraiment_flat_100.wav,0,True,1169,3,0.213129,-134.244223
Auregan,47,0,2025-01-10T15:55:54.204Z,male_vraiment_flat_100.wav,0,True,1169,4,0.284172,118.896008
Auregan,47,0,2025-01-10T15:55:54.204Z,male_vraiment_flat_100.wav,0,True,1169,5,0.355215,-31.136245
Auregan,47,0,2025-01-10T15:55:54.204Z,male_vraiment_flat_100.wav,0,True,1169,6,0.426259,41.834207
Auregan,47,0,2025-01-10T15:55:54.204Z,male_vraiment_flat_186.wav,1,False,1169,0,0.0,-146.338275
Auregan,47,0,2025-01-10T15:55:54.204Z,male_vraiment_flat_186.wav,1,False,1169,1,0.071043,17.632346
Auregan,47,0,2025-01-10T15:55:54.204Z,male_vraiment_flat_186.wav,1,False,1169,2,0.142086,135.683559
Auregan,47,0,2025-01-10T15:55:54.204Z,male_vraiment_flat_186.wav,1,False,1169,3,0.213129,133.054558
Auregan,47,0,2025-01-10T15:55:54.204Z,male_vraiment_flat_186.wav,1,False,1169,4,0.284172,-31.983178
Auregan,47,0,2025-01-10T15:55:54.204Z,male_vraiment_flat_186.wav,1,False,1169,5,0.355215,-117.937109
Auregan,47,0,2025-01-10T15:55:54.204Z,male_vraiment_flat_186.wav,1,False,1169,6,0.426259,-78.681829
Auregan,48,0,2025-01-10T15:55:54.204Z,male_vraiment_flat_101.wav,0,False,1151,0,0.0,69.316576
Auregan,48,0,2025-01-10T15:55:54.204Z,male_vraiment_flat_101.wav,0,False,1151,1,0.071043,-9.39536
Auregan,48,0,2025-01-10T15:55:54.204Z,male_vraiment_flat_101.wav,0,False,1151,2,0.142086,-16.21002
Auregan,48,0,2025-01-10T15:55:54.204Z,male_vraiment_flat_101.wav,0,False,1151,3,0.213129,5.282415
Auregan,48,0,2025-01-10T15:55:54.204Z,male_vraiment_flat_101.wav,0,False,1151,4,0.284172,-92.031474
Auregan,48,0,2025-01-10T15:55:54.204Z,male_vraiment_flat_101.wav,0,False,1151,5,0.355215,-71.382142
Auregan,48,0,2025-01-10T15:55:54.204Z,male_vraiment_flat_101.wav,0,False,1151,6,0.426259,-144.168558
Auregan,48,0,2025-01-10T15:55:54.204Z,male_vraiment_flat_95.wav,1,True,1151,0,0.0,144.813706
Auregan,48,0,2025-01-10T15:55:54.204Z,male_vraiment_flat_95.wav,1,True,1151,1,0.071043,36.420023
Auregan,48,0,2025-01-10T15:55:54.204Z,male_vraiment_flat_95.wav,1,True,1151,2,0.142086,-15.581887
Auregan,48,0,2025-01-10T15:55:54.204Z,male_vraiment_flat_95.wav,1,True,1151,3,0.213129,-108.080315
Auregan,48,0,2025-01-10T15:55:54.204Z,male_vraiment_flat_95.wav,1,True,1151,4,0.284172,44.82704
Auregan,48,0,2025-01-10T15:55:54.204Z,male_vraiment_flat_95.wav,1,True,1151,5,0.355215,-140.857646
Auregan,48,0,2025-01-10T15:55:54.204Z,male_vraiment_flat_95.wav,1,True,1151,6,0.426259,-19.601185
Auregan,49,0,2025-01-10T15:55:54.204Z,male_vraiment_flat_54.wav,0,True,2088,0,0.0,117.470857
Auregan,49,0,2025-01-10T15:55:54.204Z,male_vraiment_flat_54.wav,0,True,2088,1,0.071043,-78.886002
Auregan,49,0,2025-01-10T15:55:54.204Z,male_vraiment_flat_54.wav,0,True,2088,2,0.142086,14.587652
Auregan,49,0,2025-01-10T15:55:54.204Z,male_vraiment_flat_54.wav,0,True,2088,3,0.213129,69.368451
Auregan,49,0,2025-01-10T15:55:54.204Z,male_vraiment_flat_54.wav,0,True,2088,4,0.284172,64.657305
Auregan,49,0,2025-01-10T15:55:54.204Z,male_vraiment_flat_54.wav,0,True,2088,5,0.355215,7.845227
Auregan,49,0,2025-01-10T15:55:54.204Z,male_vraiment_flat_54.wav,0,True,2088,6,0.426259,-11.003085
Auregan,49,0,2025-01-10T15:55:54.204Z,male_vraiment_flat_137.wav,1,False,2088,0,0.0,80.130674
Auregan,49,0,2025-01-10T15:55:54.204Z,male_vraiment_flat_137.wav,1,False,2088,1,0.071043,138.574149
Auregan,49,0,2025-01-10T15:55:54.204Z,male_vraiment_flat_137.wav,1,False,2088,2,0.142086,75.49363
Auregan,49,0,2025-01-10T15:55:54.204Z,male_vraiment_flat_137.wav,1,False,2088,3,0.213129,-91.745449
Auregan,49,0,2025-01-10T15:55:54.204Z,male_vraiment_flat_137.wav,1,False,2088,4,0.284172,67.674634
Auregan,49,0,2025-01-10T15:55:54.204Z,male_vraiment_flat_137.wav,1,False,2088,5,0.355215,136.412365
Auregan,49,0,2025-01-10T15:55:54.204Z,male_vraiment_flat_137.wav,1,False,2088,6,0.426259,13.296001
Auregan,50,1,2025-01-10T15:55:54.204Z,male_vraiment_flat_74.wav,0,False,2776,0,0.0,71.293232
Auregan,50,1,2025-01-10T15:55:54.204Z,male_vraiment_flat_74.wav,0,False,2776,1,0.071043,32.860121
Auregan,50,1,2025-01-10T15:55:54.204Z,male_vraiment_flat_74.wav,0,False,2776,2,0.142086,-85.825735
Auregan,50,1,2025-01-10T15:55:54.204Z,male_vraiment_flat_74.wav,0,False,2776,3,0.213129,70.628085
Auregan,50,1,2025-01-10T15:55:54.204Z,male_vraiment_flat_74.wav,0,False,2776,4,0.284172,126.928038
Auregan,50,1,2025-01-10T15:55:54.204Z,male_vraiment_flat_74.wav,0,False,2776,5,0.355215,120.083362
Auregan,50,1,2025-01-10T15:55:54.204Z,male_vraiment_flat_74.wav,0,False,2776,6,0.426259,92.66174
Auregan,50,1,2025-01-10T15:55:54.204Z,male_vraiment_flat_189.wav,1,True,2776,0,0.0,53.448621
Auregan,50,1,2025-01-10T15:55:54.204Z,male_vraiment_flat_189.wav,1,True,2776,1,0.071043,82.292801
Auregan,50,1,2025-01-10T15:55:54.204Z,male_vraiment_flat_189.wav,1,True,2776,2,0.142086,-89.509706
Auregan,50,1,2025-01-10T15:55:54.204Z,male_vraiment_flat_189.wav,1,True,2776,3,0.213129,61.203077
Auregan,50,1,2025-01-10T15:55:54.204Z,male_vraiment_flat_189.wav,1,True,2776,4,0.284172,-64.080431
Auregan,50,1,2025-01-10T15:55:54.204Z,male_vraiment_flat_189.wav,1,True,2776,5,0.355215,71.408242
Auregan,50,1,2025-01-10T15:55:54.204Z,male_vraiment_flat_189.wav,1,True,2776,6,0.426259,-96.299976
Auregan,51,1,2025-01-10T15:55:54.204Z,male_vraiment_flat_20.wav,0,False,678,0,0.0,-58.370476
Auregan,51,1,2025-01-10T15:55:54.204Z,male_vraiment_flat_20.wav,0,False,678,1,0.071043,112.073529
Auregan,51,1,2025-01-10T15:55:54.204Z,male_vraiment_flat_20.wav,0,False,678,2,0.142086,29.472628
Auregan,51,1,2025-01-10T15:55:54.204Z,male_vraiment_flat_20.wav,0,False,678,3,0.213129,-22.374222
Auregan,51,1,2025-01-10T15:55:54.204Z,male_vraiment_flat_20.wav,0,False,678,4,0.284172,-146.515998
Auregan,51,1,2025-01-10T15:55:54.204Z,male_vraiment_flat_20.wav,0,False,678,5,0.355215,47.28072
Auregan,51,1,2025-01-10T15:55:54.204Z,male_vraiment_flat_20.wav,0,False,678,6,0.426259,140.553925
Auregan,51,1,2025-01-10T15:55:54.204Z,male_vraiment_flat_113.wav,1,True,678,0,0.0,52.176539
Auregan,51,1,2025-01-10T15:55:54.204Z,male_vraiment_flat_113.wav,1,True,678,1,0.071043,52.904766
Auregan,51,1,2025-01-10T15:55:54.204Z,male_vraiment_flat_113.wav,1,True,678,2,0.142086,-138.473207
Auregan,51,1,2025-01-10T15:55:54.204Z,male_vraiment_flat_113.wav,1,True,678,3,0.213129,-65.217652
Auregan,51,1,2025-01-10T15:55:54.204Z,male_vraiment_flat_113.wav,1,True,678,4,0.284172,3.928053
Auregan,51,1,2025-01-10T15:55:54.204Z,male_vraiment_flat_113.wav,1,True,678,5,0.355215,69.229623
Auregan,51,1,2025-01-10T15:55:54.204Z,male_vraiment_flat_113.wav,1,True,678,6,0.426259,-85.157528
Auregan,52,1,2025-01-10T15:55:54.204Z,male_vraiment_flat_75.wav,0,True,937,0,0.0,-102.776376
Auregan,52,1,2025-01-10T15:55:54.204Z,male_vraiment_flat_75.wav,0,True,937,1,0.071043,141.116849
Auregan,52,1,2025-01-10T15:55:54.204Z,male_vraiment_flat_75.wav,0,True,937,2,0.142086,12.209007
Auregan,52,1,2025-01-10T15:55:54.204Z,male_vraiment_flat_75.wav,0,True,937,3,0.213129,-138.758513
Auregan,52,1,2025-01-10T15:55:54.204Z,male_vraiment_flat_75.wav,0,True,937,4,0.284172,4.940697
Auregan,52,1,2025-01-10T15:55:54.204Z,male_vraiment_flat_75.wav,0,True,937,5,0.355215,67.499606
Auregan,52,1,2025-01-10T15:55:54.204Z,male_vraiment_flat_75.wav,0,True,937,6,0.426259,61.725226
Auregan,52,1,2025-01-10T15:55:54.204Z,male_vraiment_flat_89.wav,1,False,937,0,0.0,109.966045
Auregan,52,1,2025-01-10T15:55:54.204Z,male_vraiment_flat_89.wav,1,False,937,1,0.071043,3.952874
Auregan,52,1,2025-01-10T15:55:54.204Z,male_vraiment_flat_89.wav,1,False,937,2,0.142086,14.687736
Auregan,52,1,2025-01-10T15:55:54.204Z,male_vraiment_flat_89.wav,1,False,937,3,0.213129,-59.041416
Auregan,52,1,2025-01-10T15:55:54.204Z,male_vraiment_flat_89.wav,1,False,937,4,0.284172,-42.151762
Auregan,52,1,2025-01-10T15:55:54.204Z,male_vraiment_flat_89.wav,1,False,937,5,0.355215,-148.779325
Auregan,52,1,2025-01-10T15:55:54.204Z,male_vraiment_flat_89.wav,1,False,937,6,0.426259,-61.315288
Auregan,53,1,2025-01-10T15:55:54.204Z,male_vraiment_flat_128.wav,0,False,1040,0,0.0,-144.911109
Auregan,53,1,2025-01-10T15:55:54.204Z,male_vraiment_flat_128.wav,0,False,1040,1,0.071043,-110.844671
Auregan,53,1,2025-01-10T15:55:54.204Z,male_vraiment_flat_128.wav,0,False,1040,2,0.142086,35.068695
Auregan,53,1,2025-01-10T15:55:54.204Z,male_vraiment_flat_128.wav,0,False,1040,3,0.213129,-95.248162
Auregan,53,1,2025-01-10T15:55:54.204Z,male_vraiment_flat_128.wav,0,False,1040,4,0.284172,-45.012706
Auregan,53,1,2025-01-10T15:55:54.204Z,male_vraiment_flat_128.wav,0,False,1040,5,0.355215,79.801624
Auregan,53,1,2025-01-10T15:55:54.204Z,male_vraiment_flat_128.wav,0,False,1040,6,0.426259,-47.761682
Auregan,53,1,2025-01-10T15:55:54.204Z,male_vraiment_flat_51.wav,1,True,1040,0,0.0,130.517111
Auregan,53,1,2025-01-10T15:55:54.204Z,male_vraiment_flat_51.wav,1,True,1040,1,0.071043,138.869679
Auregan,53,1,2025-01-10T15:55:54.204Z,male_vraiment_flat_51.wav,1,True,1040,2,0.142086,-34.276776
Auregan,53,1,2025-01-10T15:55:54.204Z,male_vraiment_flat_51.wav,1,True,1040,3,0.213129,76.935346
Auregan,53,1,2025-01-10T15:55:54.204Z,male_vraiment_flat_51.wav,1,True,1040,4,0.284172,-118.523911
Auregan,53,1,2025-01-10T15:55:54.204Z,male_vraiment_flat_51.wav,1,True,1040,5,0.355215,-103.328524
Auregan,53,1,2025-01-10T15:55:54.204Z,male_vraiment_flat_51.wav,1,True,1040,6,0.426259,-14.442096
Auregan,54,1,2025-01-10T15:55:54.204Z,male_vraiment_flat_79.wav,0,True,1249,0,0.0,-102.946331
Auregan,54,1,2025-01-10T15:55:54.204Z,male_vraiment_flat_79.wav,0,True,1249,1,0.071043,143.002978
Auregan,54,1,2025-01-10T15:55:54.204Z,male_vraiment_flat_79.wav,0,True,1249,2,0.142086,-77.255333
Auregan,54,1,2025-01-10T15:55:54.204Z,male_vraiment_flat_79.wav,0,True,1249,3,0.213129,139.308503
Auregan,54,1,2025-01-10T15:55:54.204Z,male_vraiment_flat_79.wav,0,True,1249,4,0.284172,53.797207
Auregan,54,1,2025-01-10T15:55:54.204Z,male_vraiment_flat_79.wav,0,True,1249,5,0.355215,-97.855801
Auregan,54,1,2025-01-10T15:55:54.204Z,male_vraiment_flat_79.wav,0,True,1249,6,0.426259,15.451057
Auregan,54,1,2025-01-10T15:55:54.204Z,male_vraiment_flat_177.wav,1,False,1249,0,0.0,16.306046
Auregan,54,1,2025-01-10T15:55:54.204Z,male_vraiment_flat_177.wav,1,False,1249,1,0.071043,49.193464
Auregan,54,1,2025-01-10T15:55:54.204Z,male_vraiment_flat_177.wav,1,False,1249,2,0.142086,-57.450827
Auregan,54,1,2025-01-10T15:55:54.204Z,male_vraiment_flat_177.wav,1,False,1249,3,0.213129,-71.200742
Auregan,54,1,2025-01-10T15:55:54.204Z,male_vraiment_flat_177.wav,1,False,1249,4,0.284172,75.759547
Auregan,54,1,2025-01-10T15:55:54.204Z,male_vraiment_flat_177.wav,1,False,1249,5,0.355215,-147.097868
Auregan,54,1,2025-01-10T15:55:54.204Z,male_vraiment_flat_177.wav,1,False,1249,6,0.426259,-23.614561
Auregan,55,1,2025-01-10T15:55:54.204Z,male_vraiment_flat_28.wav,0,True,3246,0,0.0,82.321174
Auregan,55,1,2025-01-10T15:55:54.204Z,male_vraiment_flat_28.wav,0,True,3246,1,0.071043,-139.171806
Auregan,55,1,2025-01-10T15:55:54.204Z,male_vraiment_flat_28.wav,0,True,3246,2,0.142086,-25.451767
Auregan,55,1,2025-01-10T15:55:54.204Z,male_vraiment_flat_28.wav,0,True,3246,3,0.213129,-113.179723
Auregan,55,1,2025-01-10T15:55:54.204Z,male_vraiment_flat_28.wav,0,True,3246,4,0.284172,-97.955774
Auregan,55,1,2025-01-10T15:55:54.204Z,male_vraiment_flat_28.wav,0,True,3246,5,0.355215,43.444463
Auregan,55,1,2025-01-10T15:55:54.204Z,male_vraiment_flat_28.wav,0,True,3246,6,0.426259,-9.291608
Auregan,55,1,2025-01-10T15:55:54.204Z,male_vraiment_flat_85.wav,1,False,3246,0,0.0,16.220058
Auregan,55,1,2025-01-10T15:55:54.204Z,male_vraiment_flat_85.wav,1,False,3246,1,0.071043,97.172848
Auregan,55,1,2025-01-10T15:55:54.204Z,male_vraiment_flat_85.wav,1,False,3246,2,0.142086,121.919735
Auregan,55,1,2025-01-10T15:55:54.204Z,male_vraiment_flat_85.wav,1,False,3246,3,0.213129,69.049273
Auregan,55,1,2025-01-10T15:55:54.204Z,male_vraiment_flat_85.wav,1,False,3246,4,0.284172,124.256579
Auregan,55,1,2025-01-10T15:55:54.204Z,male_vraiment_flat_85.wav,1,False,3246,5,0.355215,30.981006
Auregan,55,1,2025-01-10T15:55:54.204Z,male_vraiment_flat_85.wav,1,False,3246,6,0.426259,-67.410158
Auregan,56,1,2025-01-10T15:55:54.204Z,male_vraiment_flat_143.wav,0,False,1397,0,0.0,-11.669164
Auregan,56,1,2025-01-10T15:55:54.204Z,male_vraiment_flat_143.wav,0,False,1397,1,0.071043,-18.385217
Auregan,56,1,2025-01-10T15:55:54.204Z,male_vraiment_flat_143.wav,0,False,1397,2,0.142086,88.645793
Auregan,56,1,2025-01-10T15:55:54.204Z,male_vraiment_flat_143.wav,0,False,1397,3,0.213129,-2.720338
Auregan,56,1,2025-01-10T15:55:54.204Z,male_vraiment_flat_143.wav,0,False,1397,4,0.284172,-37.224869
Auregan,56,1,2025-01-10T15:55:54.204Z,male_vraiment_flat_143.wav,0,False,1397,5,0.355215,-143.685714
Auregan,56,1,2025-01-10T15:55:54.204Z,male_vraiment_flat_143.wav,0,False,1397,6,0.426259,-125.491494
Auregan,56,1,2025-01-10T15:55:54.204Z,male_vraiment_flat_96.wav,1,True,1397,0,0.0,94.448216
Auregan,56,1,2025-01-10T15:55:54.204Z,male_vraiment_flat_96.wav,1,True,1397,1,0.071043,52.639741
Auregan,56,1,2025-01-10T15:55:54.204Z,male_vraiment_flat_96.wav,1,True,1397,2,0.142086,12.600351
Auregan,56,1,2025-01-10T15:55:54.204Z,male_vraiment_flat_96.wav,1,True,1397,3,0.213129,53.097554
Auregan,56,1,2025-01-10T15:55:54.204Z,male_vraiment_flat_96.wav,1,True,1397,4,0.284172,-62.16531
Auregan,56,1,2025-01-10T15:55:54.204Z,male_vraiment_flat_96.wav,1,True,1397,5,0.355215,18.022684
Auregan,56,1,2025-01-10T15:55:54.204Z,male_vraiment_flat_96.wav,1,True,1397,6,0.426259,-9.714791
Auregan,57,1,2025-01-10T15:55:54.204Z,male_vraiment_flat_169.wav,0,False,557,0,0.0,117.441793
Auregan,57,1,2025-01-10T15:55:54.204Z,male_vraiment_flat_169.wav,0,False,557,1,0.071043,-117.459261
Auregan,57,1,2025-01-10T15:55:54.204Z,male_vraiment_flat_169.wav,0,False,557,2,0.142086,-45.020491
Auregan,57,1,2025-01-10T15:55:54.204Z,male_vraiment_flat_169.wav,0,False,557,3,0.213129,-67.69915
Auregan,57,1,2025-01-10T15:55:54.204Z,male_vraiment_flat_169.wav,0,False,557,4,0.284172,-122.755451
Auregan,57,1,2025-01-10T15:55:54.204Z,male_vraiment_flat_169.wav,0,False,557,5,0.355215,-10.702133
Auregan,57,1,2025-01-10T15:55:54.204Z,male_vraiment_flat_169.wav,0,False,557,6,0.426259,66.943327
Auregan,57,1,2025-01-10T15:55:54.204Z,male_vraiment_flat_58.wav,1,True,557,0,0.0,-52.909251
Auregan,57,1,2025-01-10T15:55:54.204Z,male_vraiment_flat_58.wav,1,True,557,1,0.071043,-4.56086
Auregan,57,1,2025-01-10T15:55:54.204Z,male_vraiment_flat_58.wav,1,True,557,2,0.142086,-106.28524
Auregan,57,1,2025-01-10T15:55:54.204Z,male_vraiment_flat_58.wav,1,True,557,3,0.213129,-64.47431
Auregan,57,1,2025-01-10T15:55:54.204Z,male_vraiment_flat_58.wav,1,True,557,4,0.284172,-121.964639
Auregan,57,1,2025-01-10T15:55:54.204Z,male_vraiment_flat_58.wav,1,True,557,5,0.355215,35.204504
Auregan,57,1,2025-01-10T15:55:54.204Z,male_vraiment_flat_58.wav,1,True,557,6,0.426259,-7.93379
Auregan,58,1,2025-01-10T15:55:54.204Z,male_vraiment_flat_127.wav,0,False,2251,0,0.0,143.598511
Auregan,58,1,2025-01-10T15:55:54.204Z,male_vraiment_flat_127.wav,0,False,2251,1,0.071043,23.645136
Auregan,58,1,2025-01-10T15:55:54.204Z,male_vraiment_flat_127.wav,0,False,2251,2,0.142086,-118.740497
Auregan,58,1,2025-01-10T15:55:54.204Z,male_vraiment_flat_127.wav,0,False,2251,3,0.213129,-109.046436
Auregan,58,1,2025-01-10T15:55:54.204Z,male_vraiment_flat_127.wav,0,False,2251,4,0.284172,66.022521
Auregan,58,1,2025-01-10T15:55:54.204Z,male_vraiment_flat_127.wav,0,False,2251,5,0.355215,-13.059175
Auregan,58,1,2025-01-10T15:55:54.204Z,male_vraiment_flat_127.wav,0,False,2251,6,0.426259,22.70066
Auregan,58,1,2025-01-10T15:55:54.204Z,male_vraiment_flat_197.wav,1,True,2251,0,0.0,7.012988
Auregan,58,1,2025-01-10T15:55:54.204Z,male_vraiment_flat_197.wav,1,True,2251,1,0.071043,64.551185
Auregan,58,1,2025-01-10T15:55:54.204Z,male_vraiment_flat_197.wav,1,True,2251,2,0.142086,-65.392523
Auregan,58,1,2025-01-10T15:55:54.204Z,male_vraiment_flat_197.wav,1,True,2251,3,0.213129,18.180118
Auregan,58,1,2025-01-10T15:55:54.204Z,male_vraiment_flat_197.wav,1,True,2251,4,0.284172,-30.77522
Auregan,58,1,2025-01-10T15:55:54.204Z,male_vraiment_flat_197.wav,1,True,2251,5,0.355215,95.802549
Auregan,58,1,2025-01-10T15:55:54.204Z,male_vraiment_flat_197.wav,1,True,2251,6,0.426259,-129.373786
Auregan,59,1,2025-01-10T15:55:54.204Z,male_vraiment_flat_83.wav,0,True,1737,0,0.0,-23.907946
Auregan,59,1,2025-01-10T15:55:54.204Z,male_vraiment_flat_83.wav,0,True,1737,1,0.071043,-0.791729
Auregan,59,1,2025-01-10T15:55:54.204Z,male_vraiment_flat_83.wav,0,True,1737,2,0.142086,23.610634
Auregan,59,1,2025-01-10T15:55:54.204Z,male_vraiment_flat_83.wav,0,True,1737,3,0.213129,-35.411923
Auregan,59,1,2025-01-10T15:55:54.204Z,male_vraiment_flat_83.wav,0,True,1737,4,0.284172,101.109402
Auregan,59,1,2025-01-10T15:55:54.204Z,male_vraiment_flat_83.wav,0,True,1737,5,0.355215,-51.929212
Auregan,59,1,2025-01-10T15:55:54.204Z,male_vraiment_flat_83.wav,0,True,1737,6,0.426259,-104.958378
Auregan,59,1,2025-01-10T15:55:54.204Z,male_vraiment_flat_125.wav,1,False,1737,0,0.0,-40.862052
Auregan,59,1,2025-01-10T15:55:54.204Z,male_vraiment_flat_125.wav,1,False,1737,1,0.071043,93.19329
Auregan,59,1,2025-01-10T15:55:54.204Z,male_vraiment_flat_125.wav,1,False,1737,2,0.142086,71.046063
Auregan,59,1,2025-01-10T15:55:54.204Z,male_vraiment_flat_125.wav,1,False,1737,3,0.213129,-144.093496
Auregan,59,1,2025-01-10T15:55:54.204Z,male_vraiment_flat_125.wav,1,False,1737,4,0.284172,-1.218193
Auregan,59,1,2025-01-10T15:55:54.204Z,male_vraiment_flat_125.wav,1,False,1737,5,0.355215,94.223966
Auregan,59,1,2025-01-10T15:55:54.204Z,male_vraiment_flat_125.wav,1,False,1737,6,0.426259,-56.349938
Auregan,60,1,2025-01-10T15:55:54.204Z,male_vraiment_flat_56.wav,0,True,480,0,0.0,30.953431
Auregan,60,1,2025-01-10T15:55:54.204Z,male_vraiment_flat_56.wav,0,True,480,1,0.071043,-50.543389
Auregan,60,1,2025-01-10T15:55:54.204Z,male_vraiment_flat_56.wav,0,True,480,2,0.142086,-40.325616
Auregan,60,1,2025-01-10T15:55:54.204Z,male_vraiment_flat_56.wav,0,True,480,3,0.213129,130.397773
Auregan,60,1,2025-01-10T15:55:54.204Z,male_vraiment_flat_56.wav,0,True,480,4,0.284172,-66.278306
Auregan,60,1,2025-01-10T15:55:54.204Z,male_vraiment_flat_56.wav,0,True,480,5,0.355215,127.583751
Auregan,60,1,2025-01-10T15:55:54.204Z,male_vraiment_flat_56.wav,0,True,480,6,0.426259,-120.769688
Auregan,60,1,2025-01-10T15:55:54.204Z,male_vraiment_flat_198.wav,1,False,480,0,0.0,-103.630506
Auregan,60,1,2025-01-10T15:55:54.204Z,male_vraiment_flat_198.wav,1,False,480,1,0.071043,-84.165473
Auregan,60,1,2025-01-10T15:55:54.204Z,male_vraiment_flat_198.wav,1,False,480,2,0.142086,-14.577431
Auregan,60,1,2025-01-10T15:55:54.204Z,male_vraiment_flat_198.wav,1,False,480,3,0.213129,28.146235
Auregan,60,1,2025-01-10T15:55:54.204Z,male_vraiment_flat_198.wav,1,False,480,4,0.284172,-80.575165
Auregan,60,1,2025-01-10T15:55:54.204Z,male_vraiment_flat_198.wav,1,False,480,5,0.355215,-32.118902
Auregan,60,1,2025-01-10T15:55:54.204Z,male_vraiment_flat_198.wav,1,False,480,6,0.426259,78.303148
Auregan,61,1,2025-01-10T15:55:54.204Z,male_vraiment_flat_194.wav,0,False,2546,0,0.0,104.124735
Auregan,61,1,2025-01-10T15:55:54.204Z,male_vraiment_flat_194.wav,0,False,2546,1,0.071043,-92.067392
Auregan,61,1,2025-01-10T15:55:54.204Z,male_vraiment_flat_194.wav,0,False,2546,2,0.142086,-108.808255
Auregan,61,1,2025-01-10T15:55:54.204Z,male_vraiment_flat_194.wav,0,False,2546,3,0.213129,99.267416
Auregan,61,1,2025-01-10T15:55:54.204Z,male_vraiment_flat_194.wav,0,False,2546,4,0.284172,-26.685302
Auregan,61,1,2025-01-10T15:55:54.204Z,male_vraiment_flat_194.wav,0,False,2546,5,0.355215,97.824367
Auregan,61,1,2025-01-10T15:55:54.204Z,male_vraiment_flat_194.wav,0,False,2546,6,0.426259,-69.402109
Auregan,61,1,2025-01-10T15:55:54.204Z,male_vraiment_flat_45.wav,1,True,2546,0,0.0,-108.869549
Auregan,61,1,2025-01-10T15:55:54.204Z,male_vraiment_flat_45.wav,1,True,2546,1,0.071043,-22.660114
Auregan,61,1,2025-01-10T15:55:54.204Z,male_vraiment_flat_45.wav,1,True,2546,2,0.142086,-141.096375
Auregan,61,1,2025-01-10T15:55:54.204Z,male_vraiment_flat_45.wav,1,True,2546,3,0.213129,-24.815065
Auregan,61,1,2025-01-10T15:55:54.204Z,male_vraiment_flat_45.wav,1,True,2546,4,0.284172,102.804681
Auregan,61,1,2025-01-10T15:55:54.204Z,male_vraiment_flat_45.wav,1,True,2546,5,0.355215,112.365201
Auregan,61,1,2025-01-10T15:55:54.204Z,male_vraiment_flat_45.wav,1,True,2546,6,0.426259,95.196821
Auregan,62,1,2025-01-10T15:55:54.204Z,male_vraiment_flat_93.wav,0,True,1385,0,0.0,89.760217
Auregan,62,1,2025-01-10T15:55:54.204Z,male_vraiment_flat_93.wav,0,True,1385,1,0.071043,18.591855
Auregan,62,1,2025-01-10T15:55:54.204Z,male_vraiment_flat_93.wav,0,True,1385,2,0.142086,63.582537
Auregan,62,1,2025-01-10T15:55:54.204Z,male_vraiment_flat_93.wav,0,True,1385,3,0.213129,147.491611
Auregan,62,1,2025-01-10T15:55:54.204Z,male_vraiment_flat_93.wav,0,True,1385,4,0.284172,-113.128196
Auregan,62,1,2025-01-10T15:55:54.204Z,male_vraiment_flat_93.wav,0,True,1385,5,0.355215,12.197118
Auregan,62,1,2025-01-10T15:55:54.204Z,male_vraiment_flat_93.wav,0,True,1385,6,0.426259,-36.730637
Auregan,62,1,2025-01-10T15:55:54.204Z,male_vraiment_flat_40.wav,1,False,1385,0,0.0,14.191871
Auregan,62,1,2025-01-10T15:55:54.204Z,male_vraiment_flat_40.wav,1,False,1385,1,0.071043,-146.480257
Auregan,62,1,2025-01-10T15:55:54.204Z,male_vraiment_flat_40.wav,1,False,1385,2,0.142086,53.736102
Auregan,62,1,2025-01-10T15:55:54.204Z,male_vraiment_flat_40.wav,1,False,1385,3,0.213129,76.339598
Auregan,62,1,2025-01-10T15:55:54.204Z,male_vraiment_flat_40.wav,1,False,1385,4,0.284172,128.682971
Auregan,62,1,2025-01-10T15:55:54.204Z,male_vraiment_flat_40.wav,1,False,1385,5,0.355215,-84.4747
Auregan,62,1,2025-01-10T15:55:54.204Z,male_vraiment_flat_40.wav,1,False,1385,6,0.426259,41.341932
Auregan,63,1,2025-01-10T15:55:54.204Z,male_vraiment_flat_149.wav,0,False,737,0,0.0,17.402596
Auregan,63,1,2025-01-10T15:55:54.204Z,male_vraiment_flat_149.wav,0,False,737,1,0.071043,-44.390985
Auregan,63,1,2025-01-10T15:55:54.204Z,male_vraiment_flat_149.wav,0,False,737,2,0.142086,-32.370244
Auregan,63,1,2025-01-10T15:55:54.204Z,male_vraiment_flat_149.wav,0,False,737,3,0.213129,33.8961
Auregan,63,1,2025-01-10T15:55:54.204Z,male_vraiment_flat_149.wav,0,False,737,4,0.284172,130.098177
Auregan,63,1,2025-01-10T15:55:54.204Z,male_vraiment_flat_149.wav,0,False,737,5,0.355215,-117.346579
Auregan,63,1,2025-01-10T15:55:54.204Z,male_vraiment_flat_149.wav,0,False,737,6,0.426259,65.375118
Auregan,63,1,2025-01-10T15:55:54.204Z,male_vraiment_flat_65.wav,1,True,737,0,0.0,104.27851
Auregan,63,1,2025-01-10T15:55:54.204Z,male_vraiment_flat_65.wav,1,True,737,1,0.071043,120.74275
Auregan,63,1,2025-01-10T15:55:54.204Z,male_vraiment_flat_65.wav,1,True,737,2,0.142086,116.963717
Auregan,63,1,2025-01-10T15:55:54.204Z,male_vraiment_flat_65.wav,1,True,737,3,0.213129,-30.167489
Auregan,63,1,2025-01-10T15:55:54.204Z,male_vraiment_flat_65.wav,1,True,737,4,0.284172,58.482575
Auregan,63,1,2025-01-10T15:55:54.204Z,male_vraiment_flat_65.wav,1,True,737,5,0.355215,-35.24072
Auregan,63,1,2025-01-10T15:55:54.204Z,male_vraiment_flat_65.wav,1,True,737,6,0.426259,-49.851341
Auregan,64,1,2025-01-10T15:55:54.204Z,male_vraiment_flat_27.wav,0,False,2055,0,0.0,-44.196026
Auregan,64,1,2025-01-10T15:55:54.204Z,male_vraiment_flat_27.wav,0,False,2055,1,0.071043,72.435582
Auregan,64,1,2025-01-10T15:55:54.204Z,male_vraiment_flat_27.wav,0,False,2055,2,0.142086,30.880154
Auregan,64,1,2025-01-10T15:55:54.204Z,male_vraiment_flat_27.wav,0,False,2055,3,0.213129,-98.055697
Auregan,64,1,2025-01-10T15:55:54.204Z,male_vraiment_flat_27.wav,0,False,2055,4,0.284172,83.700413
Auregan,64,1,2025-01-10T15:55:54.204Z,male_vraiment_flat_27.wav,0,False,2055,5,0.355215,23.865121
Auregan,64,1,2025-01-10T15:55:54.204Z,male_vraiment_flat_27.wav,0,False,2055,6,0.426259,-44.006115
Auregan,64,1,2025-01-10T15:55:54.204Z,male_vraiment_flat_108.wav,1,True,2055,0,0.0,92.203113
Auregan,64,1,2025-01-10T15:55:54.204Z,male_vraiment_flat_108.wav,1,True,2055,1,0.071043,-74.681876
Auregan,64,1,2025-01-10T15:55:54.204Z,male_vraiment_flat_108.wav,1,True,2055,2,0.142086,-18.773488
Auregan,64,1,2025-01-10T15:55:54.204Z,male_vraiment_flat_108.wav,1,True,2055,3,0.213129,73.05423
Auregan,64,1,2025-01-10T15:55:54.204Z,male_vraiment_flat_108.wav,1,True,2055,4,0.284172,-72.824646
Auregan,64,1,2025-01-10T15:55:54.204Z,male_vraiment_flat_108.wav,1,True,2055,5,0.355215,140.895697
Auregan,64,1,2025-01-10T15:55:54.204Z,male_vraiment_flat_108.wav,1,True,2055,6,0.426259,13.161932
Auregan,65,1,2025-01-10T15:55:54.204Z,male_vraiment_flat_147.wav,0,True,2698,0,0.0,-109.572708
Auregan,65,1,2025-01-10T15:55:54.204Z,male_vraiment_flat_147.wav,0,True,2698,1,0.071043,-50.94391
Auregan,65,1,2025-01-10T15:55:54.204Z,male_vraiment_flat_147.wav,0,True,2698,2,0.142086,145.950821
Auregan,65,1,2025-01-10T15:55:54.204Z,male_vraiment_flat_147.wav,0,True,2698,3,0.213129,141.813801
Auregan,65,1,2025-01-10T15:55:54.204Z,male_vraiment_flat_147.wav,0,True,2698,4,0.284172,53.597843
Auregan,65,1,2025-01-10T15:55:54.204Z,male_vraiment_flat_147.wav,0,True,2698,5,0.355215,-21.310214
Auregan,65,1,2025-01-10T15:55:54.204Z,male_vraiment_flat_147.wav,0,True,2698,6,0.426259,-94.477021
Auregan,65,1,2025-01-10T15:55:54.204Z,male_vraiment_flat_62.wav,1,False,2698,0,0.0,-118.782832
Auregan,65,1,2025-01-10T15:55:54.204Z,male_vraiment_flat_62.wav,1,False,2698,1,0.071043,-35.995173
Auregan,65,1,2025-01-10T15:55:54.204Z,male_vraiment_flat_62.wav,1,False,2698,2,0.142086,21.697311
Auregan,65,1,2025-01-10T15:55:54.204Z,male_vraiment_flat_62.wav,1,False,2698,3,0.213129,22.125919
Auregan,65,1,2025-01-10T15:55:54.204Z,male_vraiment_flat_62.wav,1,False,2698,4,0.284172,-42.995885
Auregan,65,1,2025-01-10T15:55:54.204Z,male_vraiment_flat_62.wav,1,False,2698,5,0.355215,-84.37677
Auregan,65,1,2025-01-10T15:55:54.204Z,male_vraiment_flat_62.wav,1,False,2698,6,0.426259,-12.230862
Auregan,66,1,2025-01-10T15:55:54.204Z,male_vraiment_flat_153.wav,0,False,400,0,0.0,-62.10534
Auregan,66,1,2025-01-10T15:55:54.204Z,male_vraiment_flat_153.wav,0,False,400,1,0.071043,-52.997588
Auregan,66,1,2025-01-10T15:55:54.204Z,male_vraiment_flat_153.wav,0,False,400,2,0.142086,-76.077591
Auregan,66,1,2025-01-10T15:55:54.204Z,male_vraiment_flat_153.wav,0,False,400,3,0.213129,-18.807121
Auregan,66,1,2025-01-10T15:55:54.204Z,male_vraiment_flat_153.wav,0,False,400,4,0.284172,-115.396331
Auregan,66,1,2025-01-10T15:55:54.204Z,male_vraiment_flat_153.wav,0,False,400,5,0.355215,-128.292537
Auregan,66,1,2025-01-10T15:55:54.204Z,male_vraiment_flat_153.wav,0,False,400,6,0.426259,-78.65088
Auregan,66,1,2025-01-10T15:55:54.204Z,male_vraiment_flat_78.wav,1,True,400,0,0.0,80.055785
Auregan,66,1,2025-01-10T15:55:54.204Z,male_vraiment_flat_78.wav,1,True,400,1,0.071043,117.831593
Auregan,66,1,2025-01-10T15:55:54.204Z,male_vraiment_flat_78.wav,1,True,400,2,0.142086,-32.666549
Auregan,66,1,2025-01-10T15:55:54.204Z,male_vraiment_flat_78.wav,1,True,400,3,0.213129,67.905321
Auregan,66,1,2025-01-10T15:55:54.204Z,male_vraiment_flat_78.wav,1,True,400,4,0.284172,84.716683
Auregan,66,1,2025-01-10T15:55:54.204Z,male_vraiment_flat_78.wav,1,True,400,5,0.355215,30.832945
Auregan,66,1,2025-01-10T15:55:54.204Z,male_vraiment_flat_78.wav,1,True,400,6,0.426259,87.83774
Auregan,67,1,2025-01-10T15:55:54.204Z,male_vraiment_flat_168.wav,0,True,711,0,0.0,20.996757
Auregan,67,1,2025-01-10T15:55:54.204Z,male_vraiment_flat_168.wav,0,True,711,1,0.071043,53.221671
Auregan,67,1,2025-01-10T15:55:54.204Z,male_vraiment_flat_168.wav,0,True,711,2,0.142086,15.731623
Auregan,67,1,2025-01-10T15:55:54.204Z,male_vraiment_flat_168.wav,0,True,711,3,0.213129,99.382807
Auregan,67,1,2025-01-10T15:55:54.204Z,male_vraiment_flat_168.wav,0,True,711,4,0.284172,-57.914754
Auregan,67,1,2025-01-10T15:55:54.204Z,male_vraiment_flat_168.wav,0,True,711,5,0.355215,26.96173
Auregan,67,1,2025-01-10T15:55:54.204Z,male_vraiment_flat_168.wav,0,True,711,6,0.426259,-63.149674
Auregan,67,1,2025-01-10T15:55:54.204Z,male_vraiment_flat_134.wav,1,False,711,0,0.0,85.320049
Auregan,67,1,2025-01-10T15:55:54.204Z,male_vraiment_flat_134.wav,1,False,711,1,0.071043,2.14785
Auregan,67,1,2025-01-10T15:55:54.204Z,male_vraiment_flat_134.wav,1,False,711,2,0.142086,140.355465
Auregan,67,1,2025-01-10T15:55:54.204Z,male_vraiment_flat_134.wav,1,False,711,3,0.213129,98.92307
Auregan,67,1,2025-01-10T15:55:54.204Z,male_vraiment_flat_134.wav,1,False,711,4,0.284172,20.388975
Auregan,67,1,2025-01-10T15:55:54.204Z,male_vraiment_flat_134.wav,1,False,711,5,0.355215,-4.239426
Auregan,67,1,2025-01-10T15:55:54.204Z,male_vraiment_flat_134.wav,1,False,711,6,0.426259,83.444299
Auregan,68,1,2025-01-10T15:55:54.204Z,male_vraiment_flat_175.wav,0,False,3379,0,0.0,-48.933192
Auregan,68,1,2025-01-10T15:55:54.204Z,male_vraiment_flat_175.wav,0,False,3379,1,0.071043,23.459372
Auregan,68,1,2025-01-10T15:55:54.204Z,male_vraiment_flat_175.wav,0,False,3379,2,0.142086,-82.94456
Auregan,68,1,2025-01-10T15:55:54.204Z,male_vraiment_flat_175.wav,0,False,3379,3,0.213129,-41.749231
Auregan,68,1,2025-01-10T15:55:54.204Z,male_vraiment_flat_175.wav,0,False,3379,4,0.284172,4.976289
Auregan,68,1,2025-01-10T15:55:54.204Z,male_vraiment_flat_175.wav,0,False,3379,5,0.355215,52.438424
Auregan,68,1,2025-01-10T15:55:54.204Z,male_vraiment_flat_175.wav,0,False,3379,6,0.426259,-117.325248
Auregan,68,1,2025-01-10T15:55:54.204Z,male_vraiment_flat_140.wav,1,True,3379,0,0.0,-149.304179
Auregan,68,1,2025-01-10T15:55:54.204Z,male_vraiment_flat_140.wav,1,True,3379,1,0.071043,148.600586
Auregan,68,1,2025-01-10T15:55:54.204Z,male_vraiment_flat_140.wav,1,True,3379,2,0.142086,-115.715849
Auregan,68,1,2025-01-10T15:55:54.204Z,male_vraiment_flat_140.wav,1,True,3379,3,0.213129,139.265939
Auregan,68,1,2025-01-10T15:55:54.204Z,male_vraiment_flat_140.wav,1,True,3379,4,0.284172,45.121427
Auregan,68,1,2025-01-10T15:55:54.204Z,male_vraiment_flat_140.wav,1,True,3379,5,0.355215,-93.318951
Auregan,68,1,2025-01-10T15:55:54.204Z,male_vraiment_flat_140.wav,1,True,3379,6,0.426259,-66.215565
Auregan,69,1,2025-01-10T15:55:54.204Z,male_vraiment_flat_114.wav,0,False,2340,0,0.0,-107.6147
Auregan,69,1,2025-01-10T15:55:54.204Z,male_vraiment_flat_114.wav,0,False,2340,1,0.071043,-121.606705
Auregan,69,1,2025-01-10T15:55:54.204Z,male_vraiment_flat_114.wav,0,False,2340,2,0.142086,26.820871
Auregan,69,1,2025-01-10T15:55:54.204Z,male_vraiment_flat_114.wav,0,False,2340,3,0.213129,42.957584
Auregan,69,1,2025-01-10T15:55:54.204Z,male_vraiment_flat_114.wav,0,False,2340,4,0.284172,-48.053802
Auregan,69,1,2025-01-10T15:55:54.204Z,male_vraiment_flat_114.wav,0,False,2340,5,0.355215,-10.474627
Auregan,69,1,2025-01-10T15:55:54.204Z,male_vraiment_flat_114.wav,0,False,2340,6,0.426259,-131.069216
Auregan,69,1,2025-01-10T15:55:54.204Z,male_vraiment_flat_92.wav,1,True,2340,0,0.0,46.869845
Auregan,69,1,2025-01-10T15:55:54.204Z,male_vraiment_flat_92.wav,1,True,2340,1,0.071043,-22.303854
Auregan,69,1,2025-01-10T15:55:54.204Z,male_vraiment_flat_92.wav,1,True,2340,2,0.142086,54.218629
Auregan,69,1,2025-01-10T15:55:54.204Z,male_vraiment_flat_92.wav,1,True,2340,3,0.213129,-37.70661
Auregan,69,1,2025-01-10T15:55:54.204Z,male_vraiment_flat_92.wav,1,True,2340,4,0.284172,48.467677
Auregan,69,1,2025-01-10T15:55:54.204Z,male_vraiment_flat_92.wav,1,True,2340,5,0.355215,-36.67162
Auregan,69,1,2025-01-10T15:55:54.204Z,male_vraiment_flat_92.wav,1,True,2340,6,0.426259,-103.238186
Auregan,70,1,2025-01-10T15:55:54.204Z,male_vraiment_flat_94.wav,0,False,544,0,0.0,-0.652128
Auregan,70,1,2025-01-10T15:55:54.204Z,male_vraiment_flat_94.wav,0,False,544,1,0.071043,97.860897
Auregan,70,1,2025-01-10T15:55:54.204Z,male_vraiment_flat_94.wav,0,False,544,2,0.142086,48.932214
Auregan,70,1,2025-01-10T15:55:54.204Z,male_vraiment_flat_94.wav,0,False,544,3,0.213129,-23.097711
Auregan,70,1,2025-01-10T15:55:54.204Z,male_vraiment_flat_94.wav,0,False,544,4,0.284172,-47.481676
Auregan,70,1,2025-01-10T15:55:54.204Z,male_vraiment_flat_94.wav,0,False,544,5,0.355215,-120.450621
Auregan,70,1,2025-01-10T15:55:54.204Z,male_vraiment_flat_94.wav,0,False,544,6,0.426259,-116.887604
Auregan,70,1,2025-01-10T15:55:54.204Z,male_vraiment_flat_141.wav,1,True,544,0,0.0,137.275446
Auregan,70,1,2025-01-10T15:55:54.204Z,male_vraiment_flat_141.wav,1,True,544,1,0.071043,43.805847
Auregan,70,1,2025-01-10T15:55:54.204Z,male_vraiment_flat_141.wav,1,True,544,2,0.142086,-129.344909
Auregan,70,1,2025-01-10T15:55:54.204Z,male_vraiment_flat_141.wav,1,True,544,3,0.213129,-123.799171
Auregan,70,1,2025-01-10T15:55:54.204Z,male_vraiment_flat_141.wav,1,True,544,4,0.284172,-103.58441
Auregan,70,1,2025-01-10T15:55:54.204Z,male_vraiment_flat_141.wav,1,True,544,5,0.355215,8.047141
Auregan,70,1,2025-01-10T15:55:54.204Z,male_vraiment_flat_141.wav,1,True,544,6,0.426259,-108.188423
Auregan,71,1,2025-01-10T15:55:54.204Z,male_vraiment_flat_110.wav,0,True,928,0,0.0,-78.850505
Auregan,71,1,2025-01-10T15:55:54.204Z,male_vraiment_flat_110.wav,0,True,928,1,0.071043,-96.953533
Auregan,71,1,2025-01-10T15:55:54.204Z,male_vraiment_flat_110.wav,0,True,928,2,0.142086,-38.365791
Auregan,71,1,2025-01-10T15:55:54.204Z,male_vraiment_flat_110.wav,0,True,928,3,0.213129,77.506607
Auregan,71,1,2025-01-10T15:55:54.204Z,male_vraiment_flat_110.wav,0,True,928,4,0.284172,-64.506238
Auregan,71,1,2025-01-10T15:55:54.204Z,male_vraiment_flat_110.wav,0,True,928,5,0.355215,15.353748
Auregan,71,1,2025-01-10T15:55:54.204Z,male_vraiment_flat_110.wav,0,True,928,6,0.426259,121.287299
Auregan,71,1,2025-01-10T15:55:54.204Z,male_vraiment_flat_116.wav,1,False,928,0,0.0,-80.686828
Auregan,71,1,2025-01-10T15:55:54.204Z,male_vraiment_flat_116.wav,1,False,928,1,0.071043,-31.189533
Auregan,71,1,2025-01-10T15:55:54.204Z,male_vraiment_flat_116.wav,1,False,928,2,0.142086,-144.914474
Auregan,71,1,2025-01-10T15:55:54.204Z,male_vraiment_flat_116.wav,1,False,928,3,0.213129,-49.653212
Auregan,71,1,2025-01-10T15:55:54.204Z,male_vraiment_flat_116.wav,1,False,928,4,0.284172,-94.646547
Auregan,71,1,2025-01-10T15:55:54.204Z,male_vraiment_flat_116.wav,1,False,928,5,0.355215,-38.055332
Auregan,71,1,2025-01-10T15:55:54.204Z,male_vraiment_flat_116.wav,1,False,928,6,0.426259,-90.510946
Auregan,72,1,2025-01-10T15:55:54.204Z,male_vraiment_flat_0.wav,0,False,464,0,0.0,9.896041
Auregan,72,1,2025-01-10T15:55:54.204Z,male_vraiment_flat_0.wav,0,False,464,1,0.071043,101.5284
Auregan,72,1,2025-01-10T15:55:54.204Z,male_vraiment_flat_0.wav,0,False,464,2,0.142086,-68.09785
Auregan,72,1,2025-01-10T15:55:54.204Z,male_vraiment_flat_0.wav,0,False,464,3,0.213129,-142.658303
Auregan,72,1,2025-01-10T15:55:54.204Z,male_vraiment_flat_0.wav,0,False,464,4,0.284172,-120.248224
Auregan,72,1,2025-01-10T15:55:54.204Z,male_vraiment_flat_0.wav,0,False,464,5,0.355215,31.293845
